File: Data/Selected_data/SSP_2025-03-20_D10_OPER.csv
Crossheadmm,LoadN,Timesec
0.0339,0.484772,0.113
0.0675,0.614744,0.213
0.101,0.61939,0.313
0.1343,0.571745,0.413
0.1674,0.713778,0.513
0.2007,0.617898,0.613
0.2344,0.796133,0.713
0.2678,0.784012,0.813
0.301,0.997415,0.913
0.3343,0.891903,1.013
0.3674,0.828188,1.113
0.4006,1.09939,1.213
0.434,1.02946,1.313
0.4674,1.02904,1.413
0.501,1.0509,1.513
0.5343,1.14099,1.613
0.5675,1.19357,1.713
0.6009,1.25603,1.813
0.6342,1.07249,1.913
0.6674,1.35014,2.013
0.7006,1.45398,2.113
0.734,1.36689,2.213
0.7676,1.49794,2.313
0.801,1.5857,2.413
0.8342,1.39579,2.513
0.8674,1.62717,2.613
0.9007,1.75968,2.713
0.934,1.60478,2.813
0.9674,1.81038,2.913
1.0007,1.74815,3.013
1.0342,1.84481,3.113
1.0674,2.04866,3.213
1.1006,2.0619,3.313
1.1339,2.1557,3.413
1.1673,2.24384,3.513
1.2007,2.32594,3.613
1.2339,2.39404,3.713
1.2672,2.46756,3.813
1.3006,2.37478,3.913
1.3337,2.74368,4.013
1.3672,2.64385,4.113
1.4007,2.69758,4.213
1.4339,3.05303,4.313
1.4671,3.00593,4.413
1.5005,3.26676,4.513
1.5339,3.22396,4.613
1.5674,3.15732,4.713
1.6006,3.20423,4.813
1.6339,3.38915,4.913
1.6672,3.39386,5.013
1.7005,3.49005,5.113
1.7338,3.79749,5.213
1.7671,4.0232,5.313
1.8003,3.96683,5.413
1.834,4.1726,5.513
1.8673,4.41719,5.613
1.9006,4.33274,5.713
1.934,4.25849,5.813
1.9673,4.67191,5.913
2.0007,4.7144,6.013
2.0338,4.98123,6.113
2.0669,5.20655,6.213
2.1005,5.20844,6.313
2.1339,5.27436,6.413
2.1672,5.36247,6.513
2.2006,5.86628,6.613
2.2339,6.16495,6.713
2.2671,6.17052,6.813
2.3003,6.38619,6.913
2.3339,6.51525,7.013
2.3676,6.66431,7.113
2.4007,7.07474,7.213
2.4338,7.23745,7.313
2.4673,7.45969,7.413
2.5007,7.59103,7.513
2.534,8.11139,7.613
2.5672,8.26891,7.713
2.6005,8.69222,7.813
2.6342,8.6152,7.913
2.6675,9.14528,8.013
2.7007,9.33167,8.113
2.7341,9.63038,8.213
2.7672,10.0711,8.313
2.8005,10.4002,8.413
2.8339,10.8109,8.513
2.8673,10.9916,8.613
2.9008,11.5164,8.713
2.9341,12.0068,8.813
2.9674,12.3921,8.913
3.0007,12.8012,9.013
3.034,13.2592,9.113
3.0673,13.6167,9.213
3.1006,13.9795,9.313
3.1339,14.4163,9.413
3.1675,15.3401,9.513
3.2009,15.4356,9.613
3.2342,16.0449,9.713
3.2674,16.3806,9.813
3.3007,16.9985,9.913
3.334,17.6566,10.013
3.3675,18.0506,10.113
3.4007,18.8732,10.213
3.4342,19.2755,10.313
3.4675,19.9361,10.413
3.5007,20.5257,10.513
3.5341,20.9864,10.613
3.5675,21.6941,10.713
3.6009,22.3384,10.813
3.6342,22.8835,10.913
3.6675,23.5259,11.013
3.7008,24.0929,11.113
3.734,24.576,11.213
3.7675,25.47,11.313
3.801,25.8846,11.413
3.8342,26.9408,11.513
3.8674,27.4007,11.613
3.9008,27.8681,11.713
3.9342,28.9437,11.813
3.9675,29.7389,11.913
4.0008,30.3553,12.013
4.0342,31.1936,12.113
4.0676,32.0568,12.213
4.1008,32.7228,12.313
4.1341,33.4989,12.413
4.1674,34.2395,12.513
4.2006,35.0469,12.613
4.2342,35.854,12.713
4.2676,36.9135,12.813
4.3009,37.7785,12.913
4.3343,38.7103,13.013
4.3677,39.82,13.113
4.4011,40.7802,13.213
4.4341,41.5012,13.313
4.4672,42.3882,13.413
4.5008,43.0736,13.513
4.5342,44.1394,13.613
4.5676,44.6726,13.713
4.6008,40.5776,13.813
4.6341,41.5509,13.913
4.6674,42.3683,14.013
4.7006,43.9673,14.113
4.7341,44.5497,14.213
4.7677,45.6538,14.313
4.8008,46.681,14.413
4.8341,48.0653,14.513
4.8676,49.1886,14.613
4.9008,50.2252,14.713
4.9342,51.461,14.813
4.9673,53.1466,14.913
5.0006,53.3216,15.013
5.0342,54.8999,15.113
5.0676,56.0739,15.213
5.1008,57.5594,15.313
5.1341,58.7734,15.413
5.1672,60.0795,15.513
5.2006,61.2721,15.613
5.234,62.397,15.713
5.2674,63.3037,15.813
5.3008,64.4546,15.913
5.3342,65.3877,16.013
5.3675,66.2737,16.113
5.4007,66.8706,16.213
5.434,66.248,16.313
5.4674,65.477,16.413
5.5005,67.3378,16.513
5.5339,69.2678,16.613
5.5674,71.3698,16.713
5.6008,73.107,16.813
5.6341,75.0673,16.913
5.6673,76.5855,17.013
5.7006,78.5847,17.113
5.7339,80.0238,17.213
5.7674,81.6627,17.313
5.8006,83.4692,17.413
5.8339,85.0188,17.513
5.8673,86.2614,17.613
5.9005,87.8448,17.713
5.9339,89.3477,17.813
5.9673,90.9815,17.913
6.0006,92.794,18.013
6.0338,94.731,18.113
6.067,96.3958,18.213
6.1003,98.1922,18.313
6.1336,100.105,18.413
6.1671,102.072,18.513
6.2006,104.204,18.613
6.2337,105.98,18.713
6.267,108.213,18.813
6.3004,109.965,18.913
6.3337,112.066,19.013
6.3671,114.005,19.113
6.4005,115.956,19.213
6.4338,117.937,19.313
6.4671,119.958,19.413
6.5004,122.119,19.513
6.5337,123.937,19.613
6.5669,126.003,19.713
6.6001,127.942,19.813
6.6337,130.071,19.913
6.6672,132.211,20.013
6.7005,132.721,20.113
6.7339,134.91,20.213
6.7673,136.934,20.313
6.8007,139.03,20.413
6.8336,140.843,20.513
6.8669,142.084,20.613
6.9004,143.846,20.713
6.9339,145.697,20.813
6.9672,147.99,20.913
7.0005,149.976,21.013
7.0337,151.714,21.113
7.0671,153.917,21.213
7.1003,151.146,21.313
7.1339,151.733,21.413
7.1674,137.917,21.513
7.2005,138.182,21.613
7.2338,139.388,21.713
7.2674,141.164,21.813
7.3005,142.918,21.913
7.334,144.084,22.013
7.3672,145.832,22.113
7.4006,147.558,22.213
7.434,148.159,22.313
7.4674,120.927,22.413
7.5007,114.083,22.513
7.5341,113.566,22.613
7.5672,114.404,22.713
7.6006,115.044,22.813
7.634,115.41,22.913
7.6673,113.089,23.013
7.7007,113.462,23.113
7.7341,113.85,23.213
7.7674,114.142,23.313
7.8008,114.381,23.413
7.8341,114.659,23.513
7.8673,115.598,23.613
7.9005,116.094,23.713
7.9339,117.163,23.813
7.9674,102.006,23.913
8.0009,100.576,24.013
8.0342,100.978,24.113
8.0674,101.68,24.213
8.1007,102.162,24.313
8.1341,103.175,24.413
8.1676,104.184,24.513
8.2008,105.3,24.613
8.2341,106.467,24.713
8.2674,107.546,24.813
8.3006,108.7,24.913
8.3341,105.31,25.013
8.3676,105.574,25.113
8.4008,106.35,25.213
8.4342,107.2,25.313
8.4674,108.246,25.413
8.5006,109.376,25.513
8.5339,110.519,25.613
8.5675,111.645,25.713
8.601,112.897,25.813
8.6341,113.926,25.913
8.6674,115.267,26.013
8.7008,116.409,26.113
8.7341,117.159,26.213
8.7673,118.031,26.313
8.8007,118.791,26.413
8.834,119.098,26.513
8.8674,118.673,26.613
8.9007,119.082,26.713
8.934,116.852,26.813
8.9672,116.422,26.913
9.0005,115.641,27.013
9.034,115.813,27.113
9.0674,116.321,27.213
9.1007,116.893,27.313
9.1341,116.696,27.413
9.1676,116.701,27.513
9.201,116.922,27.613
9.2339,116.328,27.713
9.2671,114.261,27.813
9.3005,113.392,27.913
9.334,113.637,28.013
9.3674,114.352,28.113
9.4007,115.011,28.213
9.434,115.039,28.313
9.4672,115.233,28.413
9.5006,116.259,28.513
9.5341,116,28.613
9.5675,107.876,28.713
9.6007,95.5386,28.813
9.6341,92.5598,28.913
9.6676,90.6509,29.013
9.7007,90.2348,29.113
9.734,88.9736,29.213
9.7674,84.2559,29.313
9.8007,83.0711,29.413
9.8341,82.0531,29.513
9.8675,81.9142,29.613
9.9007,81.9975,29.713
9.934,81.931,29.813
9.9673,81.8794,29.913
10.0006,81.6165,30.013
10.0341,81.5592,30.113
10.0673,81.0466,30.213
10.1007,79.995,30.313
10.1342,79.3732,30.413
10.1674,78.2654,30.513
10.2007,76.5483,30.613
10.2341,75.9495,30.713
10.2673,75.1003,30.813
10.3005,74.7056,30.913
10.3339,69.1662,31.013
10.3672,66.4221,31.113
10.4007,64.8811,31.213
10.434,63.874,31.313
10.4672,62.8041,31.413
10.5005,61.0847,31.513
10.5339,60.5419,31.613
10.5673,59.9687,31.713
10.6005,59.5756,31.813
10.6337,59.5627,31.913
10.6672,59.4403,32.013
10.7003,58.2069,32.113
10.7338,57.4794,32.213
10.7672,57.2932,32.313
10.8005,57.2647,32.413
10.8338,57.1683,32.513
10.867,57.3868,32.613
10.9001,57.3198,32.713
10.9336,56.9888,32.813
10.9672,56.96,32.913
11.0006,56.811,33.013
11.0337,56.4275,33.113
11.0671,55.9965,33.213
11.1005,55.6745,33.313
11.1338,55.412,33.413
11.1671,55.2065,33.513
11.2004,54.9292,33.613
11.2339,54.1501,33.713
11.2672,54.1268,33.813
11.3005,53.7055,33.913
11.3339,52.7098,34.013
11.367,52.2803,34.113
11.4003,51.9375,34.213
11.4339,51.845,34.313
11.4672,51.6087,34.413
11.5006,50.9812,34.513
11.534,50.9289,34.613
11.5676,50.7525,34.713
11.6008,50.7697,34.813
11.6338,50.2204,34.913
11.6671,50.6792,35.013
11.7005,50.5797,35.113
11.734,50.4625,35.213
11.7674,50.5712,35.313
11.8007,50.3257,35.413
11.834,50.1498,35.513
11.8673,49.8996,35.613
11.9006,50.0222,35.713
11.9342,49.6124,35.813
11.9674,49.5943,35.913
12.0006,49.2616,36.013
12.0341,48.3359,36.113
12.0676,48.0581,36.213
12.1008,47.8594,36.313
12.1341,47.7899,36.413
12.1674,47.3169,36.513
12.2008,46.9211,36.613
12.2341,46.691,36.713
12.2675,46.842,36.813
12.3008,46.4251,36.913
12.3341,46.2032,37.013
12.3673,46.1936,37.113
12.4008,46.4401,37.213
12.4341,46.082,37.313
12.4675,45.9936,37.413
12.5008,46.1646,37.513
12.5342,46.0872,37.613
12.5675,46.0339,37.713
12.6009,46.1315,37.813
12.6342,46.3505,37.913
12.6675,46.1542,38.013
12.7008,46.1687,38.113
12.7342,45.6326,38.213
12.7675,45.5478,38.313
12.8009,45.3822,38.413
12.8342,45.0929,38.513
12.8675,44.2813,38.613
12.9009,45.0579,38.713
12.9342,44.8003,38.813
12.9676,44.76,38.913
13.0008,44.7746,39.013
13.034,44.5716,39.113
13.0673,44.4503,39.213
13.1007,44.4691,39.313
13.1342,44.4261,39.413
13.1676,44.3725,39.513
13.2009,44.3176,39.613
13.2343,44.1978,39.713
13.2674,44.2085,39.813
13.3005,43.9453,39.913
13.3339,43.4126,40.013
13.3676,43.1433,40.113
13.401,43.0514,40.213
13.434,43.1048,40.313
13.4675,43.2038,40.413
13.5009,43.1821,40.513
13.5343,42.938,40.613
13.5675,43.4628,40.713
13.6007,43.4159,40.813
13.6342,43.73,40.913
13.6676,43.8018,41.013
13.7008,43.9377,41.113
13.7341,43.964,41.213
13.7673,43.9565,41.313
13.8008,44.3906,41.413
13.8341,44.4173,41.513
13.8674,44.3787,41.613
13.9009,44.4741,41.713
13.9344,44.7612,41.813
13.9677,44.5271,41.913
14.001,44.3493,42.013
14.0341,44.265,42.113
14.0674,44.6252,42.213
14.1007,44.4678,42.313
14.1341,44.306,42.413
14.1675,44.2427,42.513
14.2009,43.7646,42.613
14.2341,43.8022,42.713
14.2674,43.5106,42.813
14.3008,43.7299,42.913
14.3344,43.4369,43.013
14.3674,43.4114,43.113
14.4005,43.1963,43.213
14.4341,43.0572,43.313
14.4677,42.8858,43.413
14.5008,42.8105,43.513
14.534,42.5393,43.613
14.5674,42.3085,43.713
14.6008,42.2057,43.813
14.634,41.9207,43.913
14.6673,42.009,44.013
14.7008,42.0486,44.113
14.7339,41.4131,44.213
14.7672,41.3288,44.313
14.8006,41.1411,44.413
14.834,41.1115,44.513
14.8673,41.1588,44.613
14.9005,40.9179,44.713
14.9339,40.8777,44.813
14.9673,40.6066,44.913
15.0007,40.6656,45.013
15.0339,40.5636,45.113
15.0672,40.4626,45.213
15.1005,40.7852,45.313
15.1339,40.8813,45.413
15.1672,40.5636,45.513
15.2005,39.8334,45.613
15.2339,39.4822,45.713
15.2672,39.2271,45.813
15.3005,38.9169,45.913
15.3339,38.4235,46.013
15.3672,38.0837,46.113
15.4004,37.8107,46.213
15.4336,37.3348,46.313
15.467,37.067,46.413
15.5004,36.3153,46.513
15.5339,36.1374,46.613
15.5672,35.2809,46.713
15.6006,34.9186,46.813
15.6339,34.133,46.913
15.667,33.8137,47.013
15.7001,33.0331,47.113
15.7336,32.8287,47.213
15.7674,32.347,47.313
15.8006,32.0952,47.413
15.8337,31.7998,47.513
15.8672,31.5305,47.613
15.9007,31.3129,47.713
15.9339,31.3317,47.813
15.9671,31.1119,47.913
16.0004,31.0761,48.013
16.034,31.0002,48.113
16.0673,30.846,48.213
16.1006,30.7403,48.313
16.1339,30.5396,48.413
16.1671,30.53,48.513
16.2005,30.4389,48.613
16.2339,30.3298,48.713
16.2672,30.1179,48.813
16.3007,29.9914,48.913
16.3341,29.9286,49.013
16.3676,29.8998,49.113
16.4008,29.7323,49.213
16.4339,29.5518,49.313
16.4672,29.4556,49.413
16.5006,29.334,49.513
16.534,28.5725,49.613
16.5674,28.3451,49.713
16.6008,28.1598,49.813
16.6341,28.1076,49.913
16.6673,27.968,50.013
16.7008,27.9784,50.113
16.7343,28.0268,50.213
16.7674,28.0642,50.313
16.8006,28.0047,50.413
16.8342,27.9932,50.513
16.8677,28.0704,50.613
16.901,27.8835,50.713
16.9341,27.8758,50.813
16.9675,27.5966,50.913
17.0009,27.4793,51.013
17.0341,26.8664,51.113
17.0674,27.3841,51.213
17.1009,26.9737,51.313
17.134,26.925,51.413
17.1674,26.7541,51.513
17.2009,26.8958,51.613
17.2342,26.8048,51.713
17.2676,26.9627,51.813
17.3008,27.085,51.913
17.3341,26.7562,52.013
17.3675,26.0742,52.113
17.401,26.1548,52.213
17.4343,26.011,52.313
17.4675,26.129,52.413
17.5009,25.919,52.513
17.5343,25.8018,52.613
17.5676,25.2051,52.713
17.6008,24.7305,52.813
17.6342,24.7472,52.913
17.6676,24.6031,53.013
17.7009,24.3546,53.113
17.7344,24.1967,53.213
17.7677,24.0582,53.313
17.801,23.3894,53.413
17.8341,22.9322,53.513
17.8673,23.3828,53.613
17.9008,22.7335,53.713
17.9343,22.7798,53.813
17.9677,22.7399,53.913
18.001,22.3582,54.013
18.0343,22.6455,54.113
18.0674,22.4405,54.213
18.1005,22.3944,54.313
18.1339,22.211,54.413
18.1677,22.4779,54.513
18.2009,22.4737,54.613
18.2341,22.254,54.713
18.2675,21.9683,54.813
18.301,21.7921,54.913
18.3343,22.1352,55.013
18.3673,21.7884,55.113
18.4006,21.7274,55.213
18.4342,21.5941,55.313
18.4675,21.6718,55.413
18.5008,21.6094,55.513
18.5341,21.5786,55.613
18.5673,21.4042,55.713
18.6008,21.234,55.813
18.634,21.4451,55.913
18.6672,21.3876,56.013
18.7008,21.5579,56.113
18.7342,21.3503,56.213
18.7676,21.3975,56.313
18.8008,21.3541,56.413
18.8339,21.2751,56.513
18.8673,21.627,56.613
18.9006,21.4849,56.713
18.9339,21.9564,56.813
18.9674,21.6516,56.913
19.0007,21.4358,57.013
19.034,21.4834,57.113
19.0672,21.4615,57.213
19.1007,21.5943,57.313
19.1342,21.5908,57.413
19.1672,21.5701,57.513
19.2003,21.5742,57.613
19.2341,21.6549,57.713
19.2674,21.7764,57.813
19.3007,21.7685,57.913
19.334,21.622,58.013
19.3672,21.8798,58.113
19.4007,21.8819,58.213
19.4339,21.7254,58.313
19.4671,21.659,58.413
19.5007,21.721,58.513
19.5338,21.1338,58.613
19.5671,21.3893,58.713
19.6006,21.2655,58.813
19.634,21.2297,58.913
19.6673,21.3455,59.013
19.7005,21.1263,59.113
19.7337,21.2703,59.213
19.7672,21.2167,59.313
19.8006,21.5091,59.413
19.8339,21.5178,59.513
19.8672,21.6693,59.613
19.9006,21.7064,59.713
19.934,21.7663,59.813
19.9672,21.8507,59.913
20.0004,22.0196,60.013
20.0338,21.8906,60.113
20.0672,21.9753,60.213
20.1005,22.1662,60.313
20.134,22.1478,60.413
20.1673,22.1448,60.513
20.2006,22.177,60.613
20.2337,22.215,60.713
20.2668,22.1853,60.813
20.3004,22.4852,60.913
20.334,22.5333,61.013
20.3673,22.5848,61.113
20.4007,22.7319,61.213
20.4339,22.7478,61.313
20.4672,22.7907,61.413
20.5002,22.8943,61.513
20.5337,22.8883,61.613
20.5673,23.0264,61.713
20.6006,22.9894,61.813
20.6339,23.0658,61.913
20.6674,23.2886,62.013
20.7008,23.1152,62.113
20.7341,23.4659,62.213
20.7672,23.677,62.313
20.8005,23.9487,62.413
20.834,23.8792,62.513
20.8673,24.0137,62.613
20.9007,23.7799,62.713
20.934,24.1656,62.813
20.9672,24.4062,62.913
21.0008,24.4198,63.013
21.034,24.0755,63.113
21.0672,24.1072,63.213
21.1008,23.6794,63.313
21.1342,23.6826,63.413
21.1676,23.6187,63.513
21.2007,23.6219,63.613
21.234,23.4382,63.713
21.2673,23.4213,63.813
21.3007,23.6793,63.913
21.334,23.6645,64.013
21.3674,23.6969,64.113
21.4007,23.5665,64.213
21.4341,23.3151,64.313
21.4674,23.4041,64.413
21.501,23.0384,64.513
21.5344,23.2001,64.613
21.5674,23.0366,64.713
21.6007,22.769,64.813
21.6343,22.892,64.913
21.6675,22.4644,65.013
21.701,22.4329,65.113
21.7343,22.2454,65.213
21.7676,22.3272,65.313
21.801,22.606,65.413
21.8343,22.349,65.513
21.8674,22.4527,65.613
21.9009,22.2175,65.713
21.9341,22.24,65.813
21.9675,22.2224,65.913
22.001,22.1785,66.013
22.0343,22.1076,66.113
22.0677,22.1604,66.213
22.1009,22.3377,66.313
22.1341,22.6154,66.413
22.1675,22.6184,66.513
22.201,22.4688,66.613
22.2343,22.4639,66.713
22.2676,22.6376,66.813
22.301,22.7457,66.913
22.3344,22.8516,67.013
22.3677,22.873,67.113
22.4008,22.9635,67.213
22.4341,22.9015,67.313
22.4676,22.9949,67.413
22.501,23.2166,67.513
22.5345,23.4014,67.613
22.5677,23.1302,67.713
22.6009,23.2486,67.813
22.6341,23.2469,67.913
22.6671,23.4776,68.013
22.7006,23.3205,68.113
22.7343,23.2241,68.213
22.7676,23.341,68.313
22.8009,23.3501,68.413
22.8342,23.2722,68.513
22.8673,23.4974,68.613
22.9004,23.337,68.713
22.9339,23.379,68.813
22.9674,23.3645,68.913
23.0007,23.2468,69.013
23.0341,23.3738,69.113
23.0675,23.373,69.213
23.1008,23.2313,69.313
23.1341,23.3689,69.413
23.1673,23.1585,69.513
23.2005,23.1964,69.613
23.2339,23.4103,69.713
23.2673,23.1355,69.813
23.3007,23.0523,69.913
23.3339,22.8804,70.013
23.3672,22.7244,70.113
23.4007,22.6312,70.213
23.434,22.6362,70.313
23.4671,22.3833,70.413
23.5006,22.0559,70.513
23.5342,21.905,70.613
23.5676,21.7977,70.713
23.6007,21.4235,70.813
23.6339,21.4592,70.913
23.6672,21.4088,71.013
23.7005,21.2323,71.113
23.7338,21.1131,71.213
23.7672,21.1708,71.313
23.8005,20.9991,71.413
23.8339,21.078,71.513
23.8672,20.9958,71.613
23.9007,21.1373,71.713
23.9342,20.8629,71.813
23.967,21.0206,71.913
24.0004,20.6306,72.013
24.034,20.4808,72.113
24.0673,20.5801,72.213
24.1007,20.3995,72.313
24.134,20.2258,72.413
24.1673,19.9138,72.513
24.2008,19.9094,72.613
24.2339,19.8885,72.713
24.2671,19.8232,72.813
24.3005,19.4409,72.913
24.3338,19.2944,73.013
24.3672,19.2102,73.113
24.4007,19.2179,73.213
24.434,18.9998,73.313
24.4674,18.9564,73.413
24.5005,18.5084,73.513
24.5337,18.4427,73.613
24.5672,18.4629,73.713
24.6006,18.3639,73.813
24.6339,18.1825,73.913
24.6672,18.2051,74.013
24.7006,17.6676,74.113
24.734,17.8267,74.213
24.7672,17.4538,74.313
24.8004,17.6596,74.413
24.8337,17.3235,74.513
24.8672,17.0535,74.613
24.9006,16.6572,74.713
24.934,16.6619,74.813
24.9673,16.4071,74.913
25.0006,16.4429,75.013
25.0337,16.215,75.113
25.0668,15.7111,75.213
25.1004,15.5052,75.313
25.134,15.5255,75.413
25.1673,15.3993,75.513
25.2007,15.3753,75.613
25.2339,15.3111,75.713
25.2672,14.9608,75.813
25.3003,14.9703,75.913
25.3337,15.07,76.013
25.3672,14.9063,76.113
25.4005,14.7808,76.213
25.4339,14.8332,76.313
25.4675,14.9294,76.413
25.5008,14.7099,76.513
25.5341,14.7034,76.613
25.5672,14.6207,76.713
25.6005,14.5031,76.813
25.6339,14.3829,76.913
25.6674,14.2697,77.013
25.7007,14.2703,77.113
25.734,14.1661,77.213
25.7673,14.016,77.313
25.8008,13.6423,77.413
25.834,13.3405,77.513
25.8673,12.8493,77.613
25.9007,12.749,77.713
25.9344,12.0077,77.813
25.9677,12.0561,77.913
26.0008,11.9215,78.013
26.0341,11.3988,78.113
26.0675,9.85184,78.213
26.1008,9.40376,78.313
26.1341,9.06029,78.413
26.1675,8.69483,78.513
26.2008,8.86343,78.613
26.2342,8.77412,78.713
26.2676,8.51413,78.813
26.3012,8.30417,78.913
26.3345,7.98575,79.013
26.3674,7.89176,79.113
26.4008,8.16747,79.213
26.4343,8.15937,79.313
26.4676,8.19117,79.413
26.501,7.75464,79.513
26.5344,7.88975,79.613
26.5678,7.82727,79.713
26.601,7.71046,79.813
26.6343,7.77381,79.913
26.6675,7.86912,80.013
26.7008,7.41033,80.113
26.7341,7.51635,80.213
26.7676,7.59107,80.313
26.8011,7.36661,80.413
26.8344,7.04378,80.513
26.8677,7.25569,80.613
26.901,6.86135,80.713
26.9341,6.82944,80.813
26.9675,6.64286,80.913
27.0009,6.58798,81.013
27.0342,6.67787,81.113
27.0675,6.33708,81.213
27.101,6.16978,81.313
27.1343,6.19402,81.413
27.1675,6.21778,81.513
27.2007,6.14874,81.613
27.2339,6.19904,81.713
27.2675,6.18239,81.813
27.3009,6.29174,81.913
27.3344,6.10371,82.013
27.3676,6.07592,82.113
27.4008,5.97266,82.213
27.434,5.99731,82.313
27.4671,5.72701,82.413
27.5006,5.69128,82.513
27.5342,5.62079,82.613
27.5675,5.62609,82.713
27.6009,5.24903,82.813
27.6341,5.41637,82.913
27.6672,5.25141,83.013
27.7004,5.23115,83.113
27.7339,5.10447,83.213
27.7673,4.93866,83.313
27.8006,5.12787,83.413
27.834,4.92205,83.513
27.8675,5.03069,83.613
27.9008,4.78301,83.713
27.934,4.90332,83.813
27.9672,4.88415,83.913
28.0004,4.51673,84.013
28.0337,4.33723,84.113
28.0672,4.45967,84.213
28.1006,4.52752,84.313
28.1338,4.54714,84.413
28.1673,4.46069,84.513
28.2006,4.15228,84.613
28.2339,4.14263,84.713
28.2671,4.15452,84.813
28.3005,3.89062,84.913
28.3341,4.02507,85.013
28.3675,3.75654,85.113
28.4005,3.73484,85.213
28.4339,3.70832,85.313
28.4672,3.51228,85.413
28.5005,3.51115,85.513
28.5338,3.45638,85.613