File: Data/Selected_data/SSP_2025-03-20_D10_NO.csv
Crossheadmm,LoadN,Timesec
0.0338,3.94944,0.113
0.0671,4.181,0.213
0.1006,4.65288,0.313
0.134,5.09878,0.413
0.1675,5.37697,0.513
0.2008,5.73305,0.613
0.2342,6.19665,0.713
0.2674,6.53524,0.813
0.3007,7.07407,0.913
0.3339,7.35838,1.013
0.3671,7.98465,1.113
0.4008,8.51619,1.213
0.4344,8.97773,1.313
0.4676,9.44335,1.413
0.5009,9.95355,1.513
0.5343,10.7677,1.613
0.5675,11.3987,1.713
0.6006,12.0662,1.813
0.6339,12.792,1.913
0.6674,13.6024,2.013
0.701,14.5249,2.113
0.7343,15.3604,2.213
0.7676,16.3438,2.313
0.8009,17.085,2.413
0.834,18.0614,2.513
0.8673,19.2783,2.613
0.9007,20.0319,2.713
0.9342,21.376,2.813
0.9677,22.8397,2.913
1.001,23.9824,3.013
1.0343,25.1011,3.113
1.0676,26.5813,3.213
1.1008,27.8736,3.313
1.134,29.3539,3.413
1.1673,30.8803,3.513
1.2007,32.338,3.613
1.2344,34.0532,3.713
1.2677,35.7823,3.813
1.3009,37.6205,3.913
1.3341,39.3668,4.013
1.3674,40.8722,4.113
1.4007,43.0018,4.213
1.4341,44.6636,4.313
1.4675,46.7506,4.413
1.5009,49.0854,4.513
1.5341,50.9462,4.613
1.5674,53.0622,4.713
1.6006,55.2739,4.813
1.634,57.3183,4.913
1.6673,59.4981,5.013
1.7006,61.9956,5.113
1.734,64.0318,5.213
1.7673,66.5386,5.313
1.8004,68.8055,5.413
1.8339,71.2144,5.513
1.8673,73.5343,5.613
1.9006,75.0272,5.713
1.9338,76.3359,5.813
1.9672,76.5706,5.913
2.0005,77.0587,6.013
2.0339,79.3077,6.113
2.0672,82.8406,6.213
2.1005,86.6115,6.313
2.1338,90.5449,6.413
2.1671,94.2779,6.513
2.2003,97.9252,6.613
2.2336,101.887,6.713
2.267,105.331,6.813
2.3006,109.382,6.913
2.3341,113.673,7.013
2.3674,117.754,7.113
2.4005,121.638,7.213
2.4337,126.026,7.313
2.467,130.407,7.413
2.5004,134.929,7.513
2.5338,139.492,7.613
2.5672,144.236,7.713
2.6006,148.368,7.813
2.6339,153.18,7.913
2.6671,157.935,8.013
2.7004,162.324,8.113
2.7336,165.774,8.213
2.7668,169.496,8.313
2.8004,172.497,8.413
2.8341,171.17,8.513
2.8672,171.26,8.613
2.9005,174.603,8.713
2.9339,178.761,8.813
2.967,182.797,8.913
3.0002,186.769,9.013
3.0335,188.887,9.113
3.067,193.222,9.213
3.1007,198.063,9.313
3.1339,202.019,9.413
3.1672,205.806,9.513
3.2005,210.054,9.613
3.2336,214.186,9.713
3.2668,219.334,9.813
3.3003,217.385,9.913
3.3337,222.801,10.013
3.3673,228.345,10.113
3.4006,234.154,10.213
3.4339,239.939,10.313
3.4672,245.678,10.413
3.5005,251.123,10.513
3.5337,256.552,10.613
3.5669,262.597,10.713
3.6004,268.799,10.813
3.634,275.214,10.913
3.6673,280.894,11.013
3.7006,278.432,11.113
3.7338,281.079,11.213
3.7672,275.22,11.313
3.8005,254.051,11.413
3.8339,215.422,11.513
3.8673,214.596,11.613
3.9007,219.34,11.713
3.9339,224.434,11.813
3.9671,228.163,11.913
4.0004,233.987,12.013
4.0339,239.871,12.113
4.0672,246.448,12.213
4.1005,252.266,12.313
4.1339,254.436,12.413
4.1673,260.467,12.513
4.2004,266.268,12.613
4.2339,272.194,12.713
4.2674,277.907,12.813
4.3006,280.764,12.913
4.3339,282.405,13.013
4.3673,287.611,13.113
4.4005,292.938,13.213
4.4339,298.684,13.313
4.4672,300.361,13.413
4.5006,292.967,13.513
4.5339,295.014,13.613
4.5672,274.042,13.713
4.6005,277.504,13.813
4.6338,279.525,13.913
4.667,282.785,14.013
4.7008,278.331,14.113
4.7342,252.036,14.213
4.7675,251.404,14.313
4.8006,254.551,14.413
4.8339,257.887,14.513
4.8672,260.421,14.613
4.9005,247.645,14.713
4.9338,247.84,14.813
4.9674,248.826,14.913
5.0007,244.984,15.013
5.0341,234.496,15.113
5.0673,227.469,15.213
5.1006,227.914,15.313
5.1339,215.274,15.413
5.1671,212.237,15.513
5.2006,212.612,15.613
5.2343,214.27,15.713
5.2674,210.382,15.813
5.3008,198.135,15.913
5.3343,197.854,16.013
5.3673,199.786,16.113
5.4006,199.519,16.213
5.4339,196.744,16.313
5.4673,197.363,16.413
5.501,199.347,16.513
5.5342,199.29,16.613
5.5674,188.687,16.713
5.6008,187.543,16.813
5.6339,172.288,16.913
5.6672,140.564,17.013
5.7006,131.081,17.113
5.734,116.425,17.213
5.7676,117.641,17.313
5.8009,119.266,17.413
5.8342,121.595,17.513
5.8675,124.15,17.613
5.9007,125.96,17.713
5.934,125.127,17.813
5.9672,125.27,17.913
6.0006,126.428,18.013
6.0342,121.17,18.113
6.0676,122.28,18.213
6.1007,124.357,18.313
6.134,124.426,18.413
6.1673,121.539,18.513
6.2006,113.279,18.613
6.234,114.765,18.713
6.2673,116.246,18.813
6.3008,112.091,18.913
6.334,112.326,19.013
6.3672,112.617,19.113
6.4005,110.482,19.213
6.4339,104.287,19.313
6.4673,105.534,19.413
6.5005,106.598,19.513
6.5338,98.4066,19.613
6.5672,96.1364,19.713
6.6004,95.7112,19.813
6.6339,95.4645,19.913
6.6673,94.5038,20.013
6.7005,77.2926,20.113
6.7339,75.7194,20.213
6.7672,74.6922,20.313
6.8004,74.7821,20.413
6.8339,67.6041,20.513
6.8671,67.8439,20.613
6.9005,68.0663,20.713
6.9338,67.6663,20.813
6.9671,66.7287,20.913
7.0004,61.982,21.013
7.0336,62.3485,21.113
7.0668,63.2504,21.213
7.1006,64.132,21.313
7.134,64.7331,21.413
7.1673,65.5819,21.513
7.2005,65.6893,21.613
7.2337,66.3165,21.713
7.2672,67.3611,21.813
7.3004,67.7,21.913
7.3337,67.2525,22.013
7.3672,67.5533,22.113
7.4006,68.3701,22.213
7.4339,67.5043,22.313
7.4672,66.5175,22.413
7.5004,67.021,22.513
7.5337,66.9226,22.613
7.5669,65.7985,22.713
7.6005,65.1307,22.813
7.6341,63.9582,22.913
7.6673,64.647,23.013
7.7007,65.464,23.113
7.7342,64.4305,23.213
7.767,62.5586,23.313
7.8005,60.4817,23.413
7.8338,55.0988,23.513
7.8672,54.9211,23.613
7.9007,52.461,23.713
7.9341,45.7754,23.813
7.9673,45.0879,23.913
8.0007,44.0794,24.013
8.0338,43.1901,24.113
8.0672,43.4479,24.213
8.1006,43.3904,24.313
8.1339,41.0974,24.413
8.1674,41.1796,24.513
8.2008,41.3794,24.613
8.2341,41.8805,24.713
8.2674,42.4768,24.813
8.3006,43.0191,24.913
8.3339,43.6303,25.013
8.3671,44.2927,25.113
8.4005,45.1812,25.213
8.4341,46.0439,25.313
8.4675,46.3769,25.413
8.5007,46.9862,25.513
8.5339,47.5788,25.613
8.5672,48.4833,25.713
8.6006,48.5431,25.813
8.634,48.0876,25.913
8.6673,45.76,26.013
8.7007,45.8759,26.113
8.734,46.3522,26.213
8.7672,47.1153,26.313
8.8006,47.7951,26.413
8.8341,48.4549,26.513
8.8674,48.6192,26.613
8.9007,48.4038,26.713
8.9339,48.9176,26.813
8.9672,48.5826,26.913
9.0005,48.8563,27.013
9.034,47.2546,27.113
9.0675,47.2794,27.213
9.1007,47.2774,27.313
9.1342,47.6935,27.413
9.1675,48.061,27.513
9.2007,47.4874,27.613
9.2341,38.398,27.713
9.2675,36.8666,27.813
9.3008,36.6185,27.913
9.3342,35.9758,28.013
9.3674,35.0088,28.113
9.4007,35.1192,28.213
9.4339,35.1528,28.313
9.4673,35.6436,28.413
9.5009,35.9327,28.513
9.5343,35.9112,28.613
9.5676,36.2193,28.713
9.6009,36.513,28.813
9.6342,36.0616,28.913
9.6676,36.1003,29.013
9.7008,36.2914,29.113
9.7341,36.1436,29.213
9.7675,35.6014,29.313
9.8009,35.7555,29.413
9.8343,35.3139,29.513
9.8676,34.7152,29.613
9.9008,34.7241,29.713
9.9341,35.1882,29.813
9.9674,35.6294,29.913
10.0009,36.1377,30.013
10.0344,36.3502,30.113
10.0675,36.6398,30.213
10.1011,36.7487,30.313
10.1344,36.8938,30.413
10.1673,37.1987,30.513
10.2007,37.6911,30.613
10.2342,37.9202,30.713
10.2675,38.2788,30.813
10.3009,38.4077,30.913
10.3343,38.9455,31.013
10.3676,39.4683,31.113
10.4008,39.8136,31.213
10.434,40.0524,31.313
10.4674,40.4248,31.413
10.5008,40.6274,31.513
10.5341,41.1847,31.613
10.5675,40.0913,31.713
10.601,40.4153,31.813
10.6343,40.933,31.913
10.6676,41.2429,32.013
10.7008,41.8252,32.113
10.7341,42.3638,32.213
10.7673,42.5898,32.313
10.8007,43.0779,32.413
10.8342,43.2763,32.513
10.8676,43.4909,32.613
10.9009,43.5897,32.713
10.9341,43.9238,32.813
10.9673,44.3653,32.913
11.0007,44.7948,33.013
11.0341,44.9353,33.113
11.0673,45.1911,33.213
11.1006,45.6553,33.313
11.134,46.0392,33.413
11.1671,46.1977,33.513
11.2006,46.6495,33.613
11.2339,47.0283,33.713
11.2672,47.1974,33.813
11.3005,47.0171,33.913
11.3337,46.6834,34.013
11.367,46.1704,34.113
11.4004,46.2925,34.213
11.4339,46.6728,34.313
11.4673,46.9186,34.413
11.5005,47.0908,34.513
11.5339,46.6721,34.613
11.5672,45.7556,34.713
11.6004,45.8649,34.813
11.6338,46.0077,34.913
11.6672,45.5204,35.013
11.7006,44.6918,35.113
11.7339,43.9973,35.213
11.7671,42.8746,35.313
11.8005,42.7941,35.413
11.8337,42.4398,35.513
11.867,42.6219,35.613
11.9006,42.9504,35.713
11.934,43.2347,35.813
11.9673,43.664,35.913
12.0005,43.9262,36.013
12.0339,44.2649,36.113
12.0672,44.335,36.213
12.1005,44.3789,36.313
12.1338,44.3107,36.413
12.1672,44.3506,36.513
12.2006,43.8966,36.613
12.2339,37.0034,36.713
12.2673,35.0759,36.813
12.3004,34.299,36.913
12.3338,34.0953,37.013
12.3671,34.105,37.113
12.4006,33.9212,37.213
12.434,34.0221,37.313
12.4673,33.9625,37.413
12.5008,33.6154,37.513
12.5342,33.6887,37.613
12.5671,33.7421,37.713
12.6005,34.0606,37.813
12.6339,34.2137,37.913
12.6673,34.2104,38.013
12.7007,34.457,38.113
12.7341,34.1702,38.213
12.7674,34.5525,38.313
12.8006,34.7604,38.413
12.8338,34.5976,38.513
12.8673,34.9559,38.613
12.9006,34.9606,38.713
12.934,35.0531,38.813
12.9674,34.9613,38.913
13.0008,35.2115,39.013
13.0341,35.3731,39.113
13.0674,35.4694,39.213
13.1007,35.5961,39.313
13.134,35.5466,39.413
13.1672,35.701,39.513
13.2006,35.5807,39.613