File: Data/Selected_data/SSP_2025-03-17_D3_OPER.csv
Crossheadmm,LoadN,Timesec
0.0349,0.450457,0.116
0.0683,0.305106,0.216
0.1016,0.490759,0.316
0.1348,0.51264,0.416
0.1682,0.622625,0.516
0.2016,0.554507,0.616
0.2355,0.655878,0.716
0.2688,0.703727,0.816
0.3017,0.581869,0.916
0.3351,0.665377,1.016
0.3685,0.744661,1.116
0.4016,0.632273,1.216
0.435,0.738324,1.316
0.4686,0.772988,1.416
0.502,0.749432,1.516
0.5355,0.847335,1.616
0.5687,0.921577,1.716
0.6018,0.835853,1.816
0.635,0.99362,1.916
0.6683,1.08185,2.016
0.7018,1.06537,2.116
0.7353,1.08089,2.216
0.7686,1.11614,2.316
0.802,1.25491,2.416
0.8353,1.36636,2.516
0.8685,1.36707,2.616
0.9018,1.37197,2.716
0.9351,1.4214,2.816
0.9683,1.61265,2.916
1.0018,1.66303,3.016
1.0353,1.83925,3.116
1.0688,1.85006,3.216
1.102,1.9741,3.316
1.1352,1.95138,3.416
1.1684,2.08613,3.516
1.2017,2.417,3.616
1.2351,2.54976,3.716
1.2687,2.48232,3.816
1.302,2.64307,3.916
1.3353,2.80698,4.016
1.3686,3.01805,4.116
1.4015,3.10918,4.216
1.4349,3.10157,4.316
1.4683,3.37095,4.416
1.5016,3.53495,4.516
1.5351,3.67227,4.616
1.5685,3.77404,4.716
1.6017,4.10387,4.816
1.6349,4.23929,4.916
1.6682,4.53525,5.016
1.7017,4.63974,5.116
1.7349,4.81298,5.216
1.7684,4.98567,5.316
1.8019,5.09448,5.416
1.8353,5.45984,5.516
1.8684,5.50888,5.616
1.9016,5.77328,5.716
1.9349,5.9704,5.816
1.9684,6.22841,5.916
2.0016,6.43314,6.016
2.0349,6.68506,6.116
2.0681,7.02077,6.216
2.1017,7.18044,6.316
2.1352,7.45687,6.416
2.1684,7.74836,6.516
2.2016,7.83683,6.616
2.2349,8.05364,6.716
2.2682,8.30111,6.816
2.3017,8.56355,6.916
2.3353,8.81558,7.016
2.3688,9.03763,7.116
2.4018,9.30605,7.216
2.435,9.6843,7.316
2.4683,9.86576,7.416
2.5016,10.1972,7.516
2.5347,10.493,7.616
2.568,10.6709,7.716
2.6016,10.8051,7.816
2.6353,11.0479,7.916
2.6685,11.4115,8.016
2.7015,11.9242,8.116
2.7349,12.0997,8.216
2.7683,12.4632,8.316
2.8015,12.6875,8.416
2.8347,12.9136,8.516
2.8683,13.271,8.616
2.9018,13.6544,8.716
2.9352,13.7763,8.816
2.9684,14.058,8.916
3.0015,14.0197,9.016
3.0347,13.7793,9.116
3.068,13.5516,9.216
3.1015,13.7585,9.316
3.1349,14.0463,9.416
3.1684,14.2325,9.516
3.2016,14.4647,9.616
3.235,14.708,9.716
3.2682,14.8083,9.816
3.3015,15.0463,9.916
3.3347,15.4158,10.016
3.3681,15.6599,10.116
3.4014,15.8945,10.216
3.4351,15.881,10.316
3.4684,15.8744,10.416
3.5017,15.7256,10.516
3.5349,15.6045,10.616
3.5681,15.7243,10.716
3.6015,15.8593,10.816
3.635,16.0163,10.916
3.6684,16.2221,11.016
3.7018,16.2901,11.116
3.7351,16.656,11.216
3.7684,16.8702,11.316
3.8014,17.1274,11.416
3.8348,17.3862,11.516
3.8682,17.525,11.616
3.9016,17.9058,11.716
3.935,17.9922,11.816
3.9684,18.3512,11.916
4.0016,18.654,12.016
4.0349,18.8167,12.116
4.0684,19.0515,12.216
4.1017,19.476,12.316
4.135,19.7225,12.416
4.1685,20.1521,12.516
4.202,20.3039,12.616
4.2353,20.6656,12.716
4.2685,20.9969,12.816
4.3017,21.3195,12.916
4.3351,21.5881,13.016
4.3684,21.9921,13.116
4.4017,22.277,13.216
4.435,22.7608,13.316
4.4682,23.133,13.416
4.5018,23.3169,13.516
4.5353,23.8508,13.616
4.5686,24.2002,13.716
4.6018,24.5347,13.816
4.6351,24.8855,13.916
4.6684,25.2016,14.016
4.7018,25.2923,14.116
4.7353,25.7184,14.216
4.7688,25.9489,14.316
4.8019,26.4854,14.416
4.8353,26.9534,14.516
4.8685,27.3155,14.616
4.9018,27.7561,14.716
4.935,28.1052,14.816
4.9683,28.511,14.916
5.0018,28.9124,15.016
5.0356,29.4903,15.116
5.0687,29.9135,15.216
5.1018,30.2414,15.316
5.1351,30.7236,15.416
5.1685,31.3401,15.516
5.2018,31.6013,15.616
5.2351,32.1365,15.716
5.2684,32.756,15.816
5.3021,33.1093,15.916
5.3355,33.5693,16.016
5.3687,34.0625,16.116
5.4019,34.5884,16.216
5.4351,35.0743,16.316
5.4684,35.5233,16.416
5.5018,36.018,16.516
5.5352,36.4666,16.616
5.5686,36.9051,16.716
5.602,37.3205,16.816
5.6353,37.7681,16.916
5.6685,38.1766,17.016
5.7018,38.3346,17.116
5.7351,35.3791,17.216
5.7684,35.3346,17.316
5.8017,35.7791,17.416
5.8354,36.1091,17.516
5.8688,34.3905,17.616
5.9019,34.3175,17.716
5.9352,34.8446,17.816
5.9684,35.344,17.916
6.0019,35.7074,18.016
6.0353,36.3458,18.116
6.0686,36.8563,18.216
6.102,37.2841,18.316
6.1353,36.5556,18.416
6.1685,36.7747,18.516
6.2016,37.1412,18.616
6.235,37.7341,18.716
6.2685,38.1891,18.816
6.3017,38.5759,18.916
6.3351,39.0289,19.016
6.3685,39.2721,19.116
6.4016,39.5131,19.216
6.4349,39.5345,19.316
6.4685,39.8137,19.416
6.5017,40.0434,19.516
6.535,40.0106,19.616
6.5685,39.8481,19.716
6.6019,39.8489,19.816
6.6353,39.8867,19.916
6.6683,40.1455,20.016
6.7016,40.557,20.116
6.735,40.9987,20.216
6.7684,41.4041,20.316
6.8016,41.9016,20.416
6.8349,42.2794,20.516
6.868,42.7511,20.616
6.9017,43.099,20.716
6.9351,43.3659,20.816
6.9683,41.4854,20.916
7.0016,37.9384,21.016
7.0349,35.5818,21.116
7.0681,34.3391,21.216
7.1016,33.6779,21.316
7.135,33.4803,21.416
7.1685,33.3853,21.516
7.2016,32.9061,21.616
7.235,32.783,21.716
7.2682,32.2351,21.816
7.3015,32.1488,21.916
7.3347,31.698,22.016
7.3679,31.3886,22.116
7.4014,31.5678,22.216
7.4352,31.5609,22.316
7.4683,31.0578,22.416
7.5014,30.9032,22.516
7.5349,31.0715,22.616
7.5682,30.966,22.716
7.6015,30.9546,22.816
7.6347,31.0029,22.916
7.6681,31.1204,23.016
7.7017,31.1339,23.116
7.7352,31.2716,23.216
7.7682,31.3332,23.316
7.8016,31.4402,23.416
7.8347,31.4735,23.516
7.8681,31.6996,23.616
7.9016,31.5928,23.716
7.9349,31.7206,23.816
7.9683,31.77,23.916
8.0016,31.6399,24.016
8.035,30.3509,24.116
8.0683,30.2215,24.216
8.1016,29.9828,24.316
8.1348,29.775,24.416
8.1681,29.8869,24.516
8.2015,29.6911,24.616
8.2351,29.933,24.716
8.2685,29.8487,24.816
8.3017,29.8128,24.916
8.3349,29.7095,25.016
8.3682,29.5559,25.116
8.4016,29.4544,25.216
8.4351,29.2157,25.316
8.4683,29.3041,25.416
8.5017,29.2906,25.516
8.5351,29.2209,25.616
8.5682,29.3014,25.716
8.6014,29.4404,25.816
8.6349,29.445,25.916
8.6683,29.4233,26.016
8.7016,29.613,26.116
8.7349,29.8237,26.216
8.7683,29.8827,26.316
8.8015,29.9797,26.416
8.835,29.9264,26.516
8.8685,29.7709,26.616
8.9017,29.8265,26.716
8.9351,29.6657,26.816
8.9686,29.6403,26.916
9.0019,29.7392,27.016
9.0352,29.5729,27.116
9.0684,29.58,27.216
9.1017,29.4919,27.316
9.1352,29.4426,27.416
9.1685,29.518,27.516
9.2018,29.4576,27.616
9.235,29.5252,27.716
9.2681,29.5609,27.816
9.3018,29.4252,27.916
9.3353,29.505,28.016
9.3686,28.9174,28.116
9.4019,28.6155,28.216
9.4351,28.4251,28.316
9.4685,28.2857,28.416
9.5019,28.1401,28.516
9.5353,28.2121,28.616
9.5687,28.0246,28.716
9.6019,27.6111,28.816
9.6353,27.5409,28.916
9.6686,27.5869,29.016
9.7017,27.1994,29.116
9.7351,27.2054,29.216
9.7683,26.9823,29.316
9.8018,27.1168,29.416
9.8355,26.9534,29.516
9.8686,26.8563,29.616
9.9018,26.7422,29.716
9.9353,26.6867,29.816
9.9685,26.5195,29.916
10.002,26.5067,30.016
10.0353,26.4785,30.116
10.0684,24.3937,30.216
10.102,23.6278,30.316
10.1355,23.3355,30.416
10.1687,22.9386,30.516
10.2019,21.5909,30.616
10.2352,21.1701,30.716
10.2685,20.6995,30.816
10.302,20.4901,30.916
10.3352,20.0325,31.016
10.3686,19.2539,31.116
10.402,17.5153,31.216
10.4354,16.9195,31.316
10.4686,16.179,31.416
10.5019,15.8528,31.516
10.5352,15.6958,31.616
10.5685,15.5502,31.716
10.6018,15.6247,31.816
10.6354,15.5299,31.916
10.6688,15.3371,32.016
10.702,15.3382,32.116
10.7351,15.2025,32.216
10.7685,15.0423,32.316
10.8019,14.9931,32.416
10.8354,14.909,32.516
10.8685,14.6936,32.616
10.9018,14.1546,32.716
10.9352,13.8886,32.816
10.9684,13.3141,32.916
11.0015,13.2512,33.016
11.035,13.1976,33.116
11.0684,13.1857,33.216
11.1016,13.2393,33.316
11.1348,13.3616,33.416
11.1682,13.255,33.516
11.2015,13.3339,33.616
11.2349,13.4682,33.716
11.2683,13.5763,33.816
11.3015,13.6089,33.916
11.335,13.6578,34.016
11.3684,13.7763,34.116
11.4016,13.7551,34.216
11.4349,13.8411,34.316
11.4682,13.7943,34.416
11.5014,13.9478,34.516
11.5348,13.8856,34.616
11.5682,14.0783,34.716
11.6015,14.1364,34.816
11.6347,14.1203,34.916
11.6678,14.1749,35.016
11.7015,14.2194,35.116
11.735,14.1897,35.216
11.7682,14.3164,35.316
11.8015,14.2642,35.416
11.8348,14.1541,35.516
11.8682,13.7876,35.616
11.9016,13.7425,35.716
11.9349,13.7782,35.816
11.9683,13.7537,35.916
12.0016,13.8259,36.016
12.035,13.762,36.116
12.0682,13.6992,36.216
12.1014,13.8321,36.316
12.1348,13.7959,36.416
12.168,13.777,36.516
12.2016,13.6821,36.616
12.2351,13.65,36.716
12.2683,13.7111,36.816
12.3015,13.8644,36.916
12.335,13.905,37.016
12.3681,13.39,37.116
12.4017,13.4825,37.216
12.4349,13.4725,37.316
12.4682,13.499,37.416
12.5017,13.5417,37.516
12.5352,13.6619,37.616
12.5682,13.8062,37.716
12.6015,13.7746,37.816
12.6348,13.8039,37.916
12.6682,13.6852,38.016
12.7016,13.5841,38.116
12.7349,13.4456,38.216
12.7682,13.3143,38.316
12.8017,13.3632,38.416
12.8349,13.5159,38.516
12.8683,13.463,38.616
12.9016,13.6024,38.716
12.9349,13.6064,38.816
12.9682,13.4656,38.916
13.0016,13.5656,39.016
13.0351,13.548,39.116
13.0686,13.5352,39.216
13.1017,13.4811,39.316
13.1349,13.5367,39.416
13.1683,13.5333,39.516
13.2017,13.5793,39.616
13.2352,13.565,39.716
13.2684,13.5065,39.816
13.3017,13.6589,39.916
13.3352,13.5722,40.016
13.3682,13.6602,40.116
13.4015,13.757,40.216
13.435,13.7183,40.316
13.4684,13.7381,40.416
13.5017,13.6111,40.516
13.5349,13.5486,40.616
13.5683,13.5633,40.716
13.6016,13.1318,40.816
13.635,12.8963,40.916
13.6685,12.8501,41.016
13.7019,12.8098,41.116
13.7352,12.7443,41.216
13.7687,12.8002,41.316
13.802,12.8222,41.416
13.8351,12.7212,41.516
13.8684,12.6962,41.616
13.9018,12.7575,41.716
13.9352,12.8385,41.816
13.9685,12.7861,41.916
14.0018,12.9485,42.016
14.035,12.9857,42.116
14.0683,13.0029,42.216
14.1018,13.0259,42.316
14.1353,13.0492,42.416
14.1686,12.9561,42.516
14.2019,13.1612,42.616
14.2352,13.0776,42.716
14.2686,12.9703,42.816
14.302,13.1669,42.916
14.3354,13.2304,43.016
14.3686,13.1893,43.116
14.402,13.1353,43.216
14.4354,13.2177,43.316
14.4686,13.091,43.416
14.5018,13.3448,43.516
14.5352,13.1158,43.616
14.5685,13.2491,43.716
14.602,13.284,43.816
14.6354,13.2773,43.916
14.6686,13.4638,44.016
14.7019,13.2909,44.116
14.7354,13.2265,44.216
14.7685,13.4113,44.316
14.8019,12.9303,44.416
14.8353,10.3002,44.516
14.8686,10.367,44.616
14.902,10.3448,44.716
14.9354,10.3758,44.816
14.9686,10.4357,44.916
15.0018,10.4127,45.016
15.0351,10.3456,45.116
15.0685,10.3354,45.216
15.102,10.3699,45.316
15.1351,10.3621,45.416
15.1684,10.4657,45.516
15.2019,10.4895,45.616
15.2352,10.5457,45.716
15.2685,10.549,45.816
15.3018,10.6272,45.916
15.3351,10.5639,46.016
15.3684,10.5689,46.116
15.4018,10.7056,46.216
15.4351,10.6132,46.316
15.4686,10.605,46.416
15.5018,10.5515,46.516
15.5349,10.6712,46.616
15.5684,10.623,46.716
15.6018,10.4023,46.816
15.6353,10.5802,46.916
15.6684,10.6771,47.016
15.7016,10.5967,47.116
15.7351,10.7099,47.216
15.7681,10.452,47.316
15.8014,10.4922,47.416
15.8349,10.5821,47.516
15.8683,10.4183,47.616
15.9016,10.3887,47.716
15.9348,10.3156,47.816
15.968,10.1713,47.916
16.0013,10.0763,48.016
16.0348,10.0357,48.116
16.0682,9.98826,48.216
16.1016,9.97622,48.316
16.135,10.0573,48.416
16.1684,9.92155,48.516
16.2017,9.81256,48.616
16.2348,9.69548,48.716
16.2681,9.60673,48.816
16.3015,9.6402,48.916
16.3349,9.636,49.016
16.3683,9.61985,49.116
16.4016,9.59371,49.216
16.4347,9.61315,49.316
16.468,9.60515,49.416
16.5015,9.59362,49.516
16.535,9.51087,49.616
16.5682,9.63174,49.716
16.6015,9.48236,49.816
16.6349,9.33539,49.916
16.6683,9.39143,50.016
16.7017,9.36747,50.116
16.735,9.30739,50.216
16.7682,9.1986,50.316
16.8016,9.36465,50.416
16.8349,9.23379,50.516
16.8682,9.05601,50.616
16.9014,9.18607,50.716
16.9347,9.26358,50.816
16.9681,9.27149,50.916
17.0017,9.20171,51.016
17.035,9.20352,51.116
17.0681,9.11981,51.216
17.1015,9.19226,51.316
17.135,9.15652,51.416
17.1683,9.09737,51.516
17.2016,9.13815,51.616
17.2349,9.06823,51.716
17.2683,9.0934,51.816
17.3017,9.24563,51.916
17.335,9.23783,52.016
17.3682,9.16626,52.116
17.4015,9.19337,52.216
17.4349,9.18151,52.316
17.4683,9.18617,52.416
17.5016,9.19178,52.516
17.5349,9.14801,52.616
17.5682,9.15761,52.716
17.6016,9.09947,52.816
17.6349,8.99706,52.916
17.6683,9.10192,53.016
17.7016,9.11333,53.116
17.7349,9.16635,53.216
17.7682,9.03556,53.316
17.8016,8.96528,53.416
17.835,9.07225,53.516
17.8684,8.92588,53.616
17.9017,9.03393,53.716
17.9349,8.94315,53.816
17.9684,8.79682,53.916
18.0018,8.75507,54.016
18.0352,8.67952,54.116
18.0684,8.8219,54.216
18.1017,8.63398,54.316
18.135,8.5582,54.416
18.1681,8.53423,54.516
18.2016,8.47776,54.616
18.2352,8.32971,54.716
18.2684,8.4277,54.816
18.3018,8.4588,54.916
18.335,8.46424,55.016
18.3682,8.27237,55.116
18.4015,8.13036,55.216
18.4351,8.30583,55.316
18.4685,8.22054,55.416
18.5019,8.14945,55.516
18.5353,8.1644,55.616
18.5688,8.12999,55.716
18.602,8.11129,55.816
18.6351,8.32879,55.916
18.6683,8.07095,56.016
18.7019,8.07727,56.116
18.7353,8.22248,56.216
18.7686,8.17383,56.316
18.8019,8.18091,56.416
18.8351,8.04345,56.516
18.8685,8.05126,56.616
18.9019,8.05664,56.716
18.9352,8.01889,56.816
18.9686,8.0894,56.916
19.0019,7.98989,57.016
19.0353,7.94175,57.116
19.0687,7.98079,57.216
19.1021,7.92483,57.316
19.1354,7.9819,57.416
19.1686,7.92668,57.516
19.202,7.87221,57.616
19.2353,7.90553,57.716
19.2686,7.91247,57.816
19.3018,7.81644,57.916
19.3351,7.86533,58.016
19.3685,7.67275,58.116
19.4022,7.7871,58.216
19.4353,7.70888,58.316
19.4684,7.55566,58.416
19.5019,7.69155,58.516
19.5354,7.47851,58.616
19.5686,7.52459,58.716
19.6019,7.491,58.816
19.6352,7.46826,58.916
19.6686,7.44691,59.016
19.702,7.45602,59.116
19.7352,7.55074,59.216
19.7685,7.44342,59.316
19.8017,7.40222,59.416
19.8351,7.37677,59.516
19.8685,7.33032,59.616
19.902,7.37346,59.716
19.9351,7.45304,59.816
19.9684,7.45514,59.916
20.0017,7.39889,60.016
20.0352,7.39069,60.116
20.0685,7.32346,60.216
20.1018,7.42851,60.316
20.1351,7.3934,60.416
20.1684,7.33531,60.516
20.2018,7.42653,60.616
20.2352,7.37501,60.716
20.2684,7.47452,60.816
20.3018,7.43892,60.916
20.3351,7.35514,61.016
20.3685,7.2467,61.116
20.402,7.2012,61.216
20.4354,7.28185,61.316
20.4685,7.25729,61.416
20.5017,7.21925,61.516
20.5349,7.2175,61.616
20.5682,7.09211,61.716
20.6016,7.11771,61.816
20.635,7.08674,61.916
20.6684,7.07047,62.016
20.7017,7.00929,62.116
20.7349,7.1135,62.216
20.7679,7.14428,62.316
20.8013,7.0454,62.416
20.8349,7.16936,62.516
20.8682,6.91235,62.616
20.9016,7.04997,62.716
20.9351,6.89739,62.816
20.9685,6.89206,62.916
21.0017,6.89614,63.016
21.0347,6.9049,63.116
21.068,6.85174,63.216
21.1016,6.75631,63.316
21.135,7.00762,63.416
21.1683,6.78182,63.516
21.2016,6.85821,63.616
21.2347,6.83212,63.716
21.2682,6.95385,63.816
21.3015,6.91483,63.916
21.3349,6.83964,64.016
21.3683,6.8298,64.116
21.4015,6.71786,64.216
21.4349,6.83499,64.316
21.4683,6.85745,64.416
21.5018,6.86413,64.516
21.535,6.85577,64.616
21.5682,6.79031,64.716
21.6016,6.86936,64.816
21.6349,6.80956,64.916
21.6682,6.83611,65.016
21.7015,6.84828,65.116
21.7347,6.81316,65.216
21.7682,6.94477,65.316
21.8017,6.80849,65.416
21.8348,6.98892,65.516
21.868,6.89828,65.616
21.9016,6.8908,65.716
21.935,7.05612,65.816
21.9684,6.90247,65.916
22.0016,7.07163,66.016
22.035,6.87382,66.116
22.0684,7.08386,66.216
22.1018,7.05656,66.316
22.1349,6.95854,66.416
22.1683,6.92399,66.516
22.2015,6.98882,66.616
22.235,7.08059,66.716
22.2685,7.09647,66.816
22.3018,7.05406,66.916
22.3349,7.13583,67.016
22.3682,7.07748,67.116
22.4017,7.11902,67.216
22.435,7.09245,67.316
22.4684,6.91032,67.416
22.5017,7.0447,67.516
22.535,7.14122,67.616
22.5684,7.08137,67.716
22.6018,7.08411,67.816
22.6351,7.08244,67.916
22.6684,7.15277,68.016
22.7017,7.04729,68.116
22.735,7.10883,68.216
22.7685,6.76207,68.316
22.802,7.11282,68.416
22.8353,7.03067,68.516
22.8685,7.08943,68.616
22.9017,6.96716,68.716
22.935,7.05333,68.816
22.9683,6.94325,68.916
23.0018,7.10165,69.016
23.0353,7.02623,69.116
23.0686,6.97075,69.216
23.1019,7.04594,69.316
23.1352,6.88209,69.416
23.1682,6.78421,69.516
23.2016,6.92409,69.616
23.2353,6.73357,69.716
23.2686,6.741,69.816
23.302,6.55212,69.916
23.3354,6.61763,70.016
23.3688,6.5746,70.116
23.402,6.43992,70.216
23.4351,6.51307,70.316
23.4683,6.44317,70.416
23.5019,6.40893,70.516
23.5353,6.49773,70.616
23.5687,6.40928,70.716
23.6019,6.29598,70.816
23.6351,6.38612,70.916
23.6686,6.35687,71.016
23.7019,6.41327,71.116
23.7351,6.22746,71.216
23.7685,6.29314,71.316
23.8018,6.15062,71.416
23.8352,6.20729,71.516
23.8687,6.02156,71.616
23.9021,6.13143,71.716
23.9354,5.96858,71.816
23.9685,5.93228,71.916
24.0018,5.88532,72.016
24.0352,5.80454,72.116
24.0685,5.66344,72.216
24.1018,5.62897,72.316
24.1351,5.69696,72.416
24.1686,5.48797,72.516
24.2021,5.55381,72.616
24.2351,5.44563,72.716
24.2682,5.28799,72.816
24.3018,5.17613,72.916
24.3352,5.16126,73.016
24.3686,5.00994,73.116
24.4019,5.08644,73.216
24.4352,4.96612,73.316
24.4687,4.86011,73.416
24.5019,4.88452,73.516
24.535,4.69425,73.616
24.5684,4.66578,73.716
24.6017,4.60361,73.816
24.6352,4.50137,73.916
24.6686,4.57986,74.016
24.7019,4.46181,74.116
24.7351,4.41563,74.216
24.7683,4.32223,74.316
24.8016,4.15813,74.416
24.8351,4.18537,74.516
24.8685,3.91906,74.616
24.9018,4.00044,74.716
24.9351,3.81055,74.816
24.9684,3.62685,74.916
25.0019,3.57461,75.016
25.0352,3.56293,75.116
25.0682,3.63652,75.216
25.1016,3.60737,75.316
25.135,3.40354,75.416
25.1684,3.43253,75.516
25.202,3.40062,75.616
25.2352,3.35157,75.716
25.2684,3.42887,75.816
25.3016,3.29289,75.916
25.3347,3.37313,76.016
25.368,3.27951,76.116
25.4015,3.26959,76.216
25.435,3.28381,76.316
25.4683,3.28413,76.416
25.5015,3.07188,76.516
25.5348,3.19786,76.616
25.5678,3.25205,76.716
25.6012,3.14519,76.816
25.6349,3.03775,76.916
25.6682,3.07835,77.016
25.7016,3.0865,77.116
25.7351,3.141,77.216
25.7684,3.22921,77.316
25.8016,3.11867,77.416
25.8347,3.1564,77.516
25.8679,3.20645,77.616
25.9014,3.12874,77.716
25.9349,3.06551,77.816
25.9682,3.07507,77.916
26.0016,3.02604,78.016
26.0346,3.157,78.116
26.0682,3.26098,78.216
26.1015,3.01273,78.316
26.1347,3.03799,78.416
26.1681,3.21475,78.516
26.2015,3.13274,78.616
26.2349,3.10162,78.716
26.2684,3.20894,78.816
26.3017,3.10098,78.916
26.335,3.17595,79.016
26.3682,3.1284,79.116
26.4016,3.0747,79.216
26.4349,3.12554,79.316
26.4681,3.01784,79.416
26.5015,3.01699,79.516
26.5349,3.1673,79.616
26.5684,3.10901,79.716
26.6019,2.97156,79.816
26.6349,3.01313,79.916
26.6681,3.12788,80.016
26.7017,3.04874,80.116
26.7349,3.11399,80.216
26.7684,3.0396,80.316
26.8018,3.11332,80.416
26.8351,3.08663,80.516
26.8685,2.98731,80.616
26.9018,3.04135,80.716
26.9349,2.95656,80.816
26.9683,2.94499,80.916
27.0017,3.01539,81.016
27.0352,2.99546,81.116
27.0686,2.91821,81.216
27.1019,2.88701,81.316
27.1351,2.96871,81.416
27.1684,2.84033,81.516
27.2017,2.7876,81.616
27.2351,2.81414,81.716
27.2685,2.94883,81.816
27.3018,3.04863,81.916
27.3352,2.886,82.016
27.3685,2.84009,82.116
27.402,2.93382,82.216
27.4352,2.76284,82.316
27.4684,2.99491,82.416
27.5017,2.81256,82.516
27.5352,2.91745,82.616
27.5686,2.82213,82.716
27.6022,2.92851,82.816
27.6353,2.89975,82.916
27.6686,2.77992,83.016
27.7018,2.82407,83.116
27.7348,2.85809,83.216
27.7682,2.8773,83.316
27.8018,2.9687,83.416
27.8353,2.9363,83.516
27.8687,2.93284,83.616
27.9019,2.87912,83.716
27.9351,2.88657,83.816
27.9682,2.93497,83.916
28.0015,2.87465,84.016
28.0351,2.90304,84.116
28.0686,3.13311,84.216
28.102,2.90226,84.316
28.1355,2.91102,84.416
28.1688,2.9212,84.516
28.2019,2.89003,84.616
28.2351,2.8276,84.716
28.2683,2.92078,84.816
28.3018,2.97282,84.916
28.3352,3.03007,85.016
28.3686,2.89927,85.116
28.4018,2.97439,85.216
28.435,2.96174,85.316
28.4686,2.9402,85.416
28.5019,2.90047,85.516
28.535,2.92168,85.616
28.5684,2.92755,85.716
28.6018,2.93566,85.816
28.6353,2.83771,85.916
28.6687,2.99535,86.016
28.7021,2.90547,86.116
28.7353,2.9662,86.216
28.7685,2.87175,86.316
28.8018,2.96041,86.416
28.8351,2.86791,86.516
28.8684,2.89958,86.616
28.9018,3.035,86.716
28.9351,2.99273,86.816
28.9686,2.95166,86.916
29.0021,2.93777,87.016
29.035,3.05399,87.116
29.0682,3.02562,87.216
29.1018,2.94059,87.316
29.1351,3.1163,87.416
29.1685,3.05074,87.516
29.2019,3.0208,87.616
29.2351,2.92874,87.716
29.2687,3.02375,87.816
29.3019,3.02874,87.916
29.3349,3.00724,88.016
29.3682,3.05586,88.116
29.4016,3.02197,88.216
29.4351,3.09391,88.316
29.4685,3.03941,88.416
29.5018,2.97089,88.516
29.5351,2.95655,88.616
29.5683,3.12178,88.716
29.6016,2.94241,88.816
29.6349,3.02251,88.916
29.6684,2.98381,89.016
29.7017,2.99626,89.116
29.735,2.90064,89.216
29.7684,3.02576,89.316
29.8019,3.0693,89.416
29.8351,3.01472,89.516
29.8682,3.00585,89.616
29.9014,2.97134,89.716
29.935,2.93411,89.816
29.9685,3.0879,89.916
30.002,2.94971,90.016
30.0351,3.02403,90.116
30.0683,2.99997,90.216
30.1015,3.11738,90.316
30.1345,2.85583,90.416
30.1679,3.05999,90.516
30.2016,2.953,90.616
30.2349,3.00751,90.716
30.2682,3.01944,90.816
30.3015,2.92475,90.916
30.3347,2.96673,91.016
30.3678,2.82376,91.116
30.4011,2.82025,91.216
30.4347,2.89603,91.316
30.4682,2.96623,91.416
30.5016,2.9275,91.516
30.5351,2.72501,91.616
30.5684,2.81021,91.716
30.6015,2.92373,91.816
30.6346,2.87166,91.916
30.668,2.88406,92.016
30.7014,2.79031,92.116
30.7349,2.79532,92.216
30.7683,2.79669,92.316
30.8015,2.77545,92.416
30.8348,2.68942,92.516
30.8684,2.65428,92.616
30.9016,2.69218,92.716
30.9348,2.55135,92.816
30.9681,2.68641,92.916
31.0017,2.64174,93.016
31.0351,2.51983,93.116
31.0686,2.60726,93.216
31.1019,2.69917,93.316
31.1352,2.50609,93.416
31.1684,2.44196,93.516
31.2017,2.56213,93.616
31.2349,2.60652,93.716
31.2683,2.72632,93.816
31.3017,2.47741,93.916
31.3351,2.4596,94.016
31.3687,2.43016,94.116
31.402,2.35905,94.216
31.4349,2.49883,94.316
31.4683,2.36179,94.416
31.5018,2.47629,94.516
31.5351,2.39045,94.616
31.5685,2.40174,94.716
31.6019,2.37256,94.816
31.6353,2.45069,94.916
31.6687,2.27436,95.016
31.7019,2.26056,95.116
31.735,2.30624,95.216
31.7682,2.30079,95.316
31.8017,2.22094,95.416
31.8352,2.26542,95.516
31.8686,2.28895,95.616
31.9019,2.23278,95.716
31.9352,2.3145,95.816
31.9685,2.24858,95.916
32.0017,2.25399,96.016
32.0351,2.3698,96.116
32.0685,2.25158,96.216
32.1018,2.19935,96.316
32.1352,2.08876,96.416
32.1686,1.97642,96.516
32.202,1.20273,96.616
32.2352,0.988311,96.716
32.2683,0.960049,96.816
32.3016,0.997847,96.916
32.3352,1.09967,97.016
32.3687,1.03845,97.116
32.4022,1.01497,97.216
32.4354,0.89912,97.316
32.4686,0.963354,97.416
32.5018,0.926313,97.516
32.5348,0.995053,97.616
32.5682,0.942582,97.716
32.6018,0.891553,97.816
32.6353,0.901499,97.916
32.6687,0.863736,98.016
32.7019,0.881414,98.116
32.7351,0.909358,98.216
32.7682,0.652317,98.316
32.8016,0.73218,98.416
32.8351,0.781685,98.516
32.8686,0.753754,98.616
32.9021,0.677518,98.716
32.9356,0.711532,98.816
32.9689,0.782789,98.916
33.002,0.610403,99.016
33.0351,0.763825,99.116
33.0684,0.694832,99.216
33.1017,0.633904,99.316
33.1352,0.764977,99.416
33.1686,0.883595,99.516
33.2018,0.608142,99.616
33.2352,0.673041,99.716
33.2686,0.749384,99.816
33.3019,0.625429,99.916
33.335,0.600808,100.016
33.3683,0.625242,100.116
33.4018,0.66225,100.216
33.4353,0.667492,100.316
33.4687,0.645597,100.416
33.502,0.694424,100.516
33.5352,0.530408,100.616