File: Data/Selected_data/SSP_2025-03-17_D2_NO.csv
Crossheadmm,LoadN,Timesec
0.0337,72.2243,0.112
0.067,98.5591,0.212
0.1005,105.638,0.312
0.1339,107.935,0.412
0.1676,114.23,0.512
0.201,113.257,0.612
0.2342,112.656,0.712
0.2674,112.167,0.812
0.3007,110.686,0.912
0.3341,111.823,1.012
0.3676,110.969,1.112
0.4009,110.859,1.212
0.4343,126.134,1.312
0.4676,148.644,1.412
0.5007,162.85,1.512
0.5339,172.176,1.612
0.5673,178.757,1.712
0.6007,182.91,1.812
0.6339,184.968,1.912
0.6673,185.414,2.012
0.7006,187.626,2.112
0.7339,187.918,2.212
0.7672,188.341,2.312
0.8007,188.882,2.412
0.8339,189.019,2.512
0.8672,189.623,2.612
0.9006,190.172,2.712
0.934,190.673,2.812
0.9673,191.247,2.912
1.0007,191.674,3.012
1.0339,192.055,3.112
1.0673,192.671,3.212
1.1006,193.292,3.312
1.1339,193.866,3.412
1.1671,194.331,3.512
1.2002,194.87,3.612
1.2338,195.854,3.712
1.2673,196.655,3.812
1.3005,197.201,3.912
1.3339,197.929,4.012
1.3672,198.391,4.112
1.4005,198.791,4.212
1.4338,199.491,4.312
1.4671,200.067,4.412
1.5005,200.697,4.512
1.534,201.382,4.612
1.5673,201.921,4.712
1.6004,202.31,4.812
1.6338,203.123,4.912
1.667,203.828,5.012
1.7002,204.231,5.112
1.7337,204.915,5.212
1.7674,205.925,5.312
1.8006,205.806,5.412
1.8336,205.951,5.512
1.867,206.469,5.612
1.9004,207.194,5.712
1.9339,208.085,5.812
1.9671,208.427,5.912
2.0003,208.919,6.012
2.0339,209.934,6.112
2.0674,210.363,6.212
2.1005,210.589,6.312
2.1338,211.302,6.412
2.167,211.684,6.512
2.2003,212.322,6.612
2.2337,213.063,6.712
2.2671,213.721,6.812
2.3007,214.697,6.912
2.3343,215.545,7.012
2.3676,216.133,7.112
2.4004,216.666,7.212
2.4335,217.65,7.312
2.4669,218.47,7.412
2.5003,219.323,7.512
2.5336,220.379,7.612
2.5672,221.329,7.712
2.6007,222.162,7.812
2.6338,222.905,7.912
2.667,223.532,8.012
2.7004,224.408,8.112
2.7338,225.295,8.212
2.7672,225.689,8.312
2.8005,226.097,8.412
2.8339,226.922,8.512
2.8672,227.656,8.612
2.9003,228.369,8.712
2.9336,229.35,8.812
2.9671,230.46,8.912
3.0005,231.113,9.012
3.0337,232.129,9.112
3.0671,232.965,9.212
3.1004,234.274,9.312
3.1337,235.448,9.412
3.1671,236.656,9.512
3.2006,237.666,9.612
3.2338,237.92,9.712
3.2672,239.032,9.812
3.3006,239.901,9.912
3.3339,240.613,10.012
3.3673,241.359,10.112
3.4006,242.404,10.212
3.4339,242.658,10.312
3.4673,243.563,10.412
3.5006,244.5,10.512
3.5339,245.421,10.612
3.5672,246.667,10.712
3.6003,247.681,10.812
3.6339,248.615,10.912
3.6673,249.804,11.012
3.7006,251.072,11.112
3.734,252.375,11.212
3.7673,253.454,11.312
3.8006,254.471,11.412
3.834,255.602,11.512
3.8673,256.989,11.612
3.9007,258.431,11.712
3.9341,259.178,11.812
3.9675,259.503,11.912
4.0007,259.131,12.012
4.034,259.21,12.112
4.0673,259.751,12.212
4.1005,259.149,12.312
4.134,259.812,12.412
4.1676,259.867,12.512
4.2008,259.242,12.612
4.2339,259.247,12.712
4.2673,253.646,12.812
4.3006,254.741,12.912
4.3342,257,13.012
4.3674,259.201,13.112
4.4007,260.679,13.212
4.4342,262.164,13.312
4.4676,263.76,13.412
4.5007,265.399,13.512
4.5341,266.786,13.612
4.5673,268.108,13.712
4.6006,269.118,13.812
4.6341,270.355,13.912
4.6674,271.614,14.012
4.7009,273.012,14.112
4.7345,273.109,14.212
4.7678,273.443,14.312
4.8007,274.246,14.412
4.8339,273.661,14.512
4.8673,274.066,14.612
4.9006,275.446,14.712
4.934,277.054,14.812
4.9675,276.395,14.912
5.001,253.752,15.012
5.0341,237.322,15.112
5.0673,228.177,15.212
5.1007,228.76,15.312
5.1341,201.423,15.412
5.1677,200.776,15.512
5.2008,201.949,15.612
5.2342,204.282,15.712
5.2675,206.227,15.812
5.3005,207.882,15.912
5.3338,180.982,16.012
5.3673,181.215,16.112
5.4007,183.167,16.212
5.434,184.604,16.312
5.4672,186.717,16.412
5.5004,189.004,16.512
5.5337,190.633,16.612
5.5671,187.321,16.712
5.6007,103.793,16.812
5.634,101.198,16.912
5.6673,90.7703,17.012
5.7007,87.4535,17.112
5.734,79.4567,17.212
5.7673,76.6396,17.312
5.8007,73.9562,17.412
5.8339,73.3034,17.512
5.8673,71.1919,17.612
5.9006,43.1217,17.712
5.9339,42.1444,17.812
5.9671,42.0155,17.912
6.0004,41.9419,18.012
6.0339,41.8753,18.112
6.0674,41.4046,18.212
6.1007,41.1495,18.312
6.1341,41.3194,18.412
6.1673,41.3021,18.512
6.2007,41.3794,18.612
6.234,41.4529,18.712
6.2673,41.2811,18.812
6.3006,41.2529,18.912
6.3341,41.1072,19.012
6.3674,41.1197,19.112
6.4007,41.131,19.212
6.4339,41.1825,19.312
6.4673,41.1188,19.412
6.5005,41.1392,19.512
6.534,40.9463,19.612
6.5675,40.8248,19.712
6.6007,40.8589,19.812
6.6338,40.6882,19.912
6.6672,40.6619,20.012
6.7006,40.7838,20.112
6.734,40.7547,20.212
6.7673,40.7095,20.312
6.8005,40.7451,20.412
6.8341,40.6627,20.512
6.8675,40.8623,20.612
6.9005,40.63,20.712
6.9339,40.5042,20.812
6.9672,40.4948,20.912
7.0005,40.6182,21.012
7.0339,40.4403,21.112
7.0672,40.561,21.212
7.1008,40.5913,21.312
7.1343,40.5903,21.412
7.1674,40.6163,21.512
7.2004,40.6732,21.612
7.2338,40.7955,21.712
7.2671,40.8503,21.812
7.3004,40.7687,21.912
7.3338,40.3587,22.012
7.3673,40.4065,22.112
7.4007,40.4273,22.212
7.4339,40.5245,22.312
7.4671,40.6595,22.412
7.5006,40.7265,22.512
7.5339,40.8538,22.612
7.5674,40.9264,22.712
7.6007,40.7451,22.812
7.6339,40.8611,22.912
7.6673,40.8545,23.012
7.7003,40.9871,23.112
7.7338,41.2252,23.212
7.7673,41.1882,23.312
7.8007,41.3999,23.412
7.8339,41.5344,23.512
7.8672,41.8496,23.612
7.9004,41.9946,23.712
7.9337,42.3624,23.812
7.9671,42.5144,23.912
8.0007,42.5324,24.012
8.034,42.7297,24.112
8.0674,42.916,24.212
8.1008,43.2546,24.312
8.1341,43.4442,24.412
8.1675,43.5469,24.512
8.2008,43.698,24.612
8.2341,43.8297,24.712
8.2675,43.9689,24.812
8.3008,44.0099,24.912
8.3341,44.0359,25.012
8.3673,43.8811,25.112
8.4006,43.9288,25.212
8.4341,43.843,25.312
8.4674,43.8981,25.412
8.5008,44.2789,25.512
8.5341,44.2842,25.612
8.5675,44.3205,25.712
8.6009,44.3576,25.812
8.6342,44.4731,25.912
8.6675,44.4665,26.012
8.7008,44.4403,26.112
8.7342,44.5952,26.212
8.7676,44.6064,26.312
8.8008,44.8254,26.412
8.8341,44.9117,26.512
8.8675,45.0061,26.612
8.9008,45.0184,26.712
8.9344,45.0084,26.812
8.9677,45.2107,26.912
9.0008,45.0988,27.012
9.0341,45.3616,27.112
9.0676,45.299,27.212
9.1009,45.5138,27.312
9.1344,45.523,27.412
9.1677,45.6482,27.512
9.201,45.7615,27.612
9.2344,45.8387,27.712
9.2677,46.0005,27.812
9.3008,46.2848,27.912
9.3341,46.5526,28.012
9.3675,46.582,28.112
9.4009,46.3085,28.212
9.4343,46.639,28.312
9.4676,46.7463,28.412
9.5011,46.8025,28.512
9.5345,47.0238,28.612
9.5676,47.1825,28.712
9.6007,47.2874,28.812
9.634,47.3965,28.912
9.6674,47.4912,29.012
9.7008,47.3067,29.112
9.7342,47.5211,29.212
9.7676,47.3791,29.312
9.801,47.5477,29.412
9.8342,47.5528,29.512
9.8675,47.6129,29.612
9.9009,47.7145,29.712
9.9342,47.7694,29.812
9.9678,47.6567,29.912
10.0009,47.5951,30.012
10.0342,46.698,30.112
10.0674,46.7981,30.212
10.1005,47.0045,30.312
10.134,46.9612,30.412
10.1676,46.5933,30.512
10.2008,46.5459,30.612
10.2342,46.5848,30.712
10.2673,46.4722,30.812
10.3005,46.3762,30.912
10.3338,46.4637,31.012
10.3673,46.5767,31.112
10.4007,46.3772,31.212
10.4341,46.3633,31.312
10.4674,46.2085,31.412
10.5009,46.2334,31.512
10.5341,46.4162,31.612
10.5674,46.2275,31.712
10.6007,45.7139,31.812
10.6341,45.7647,31.912
10.6674,45.9922,32.012
10.7007,46.2257,32.112
10.7341,46.299,32.212
10.7673,46.426,32.312
10.8005,46.6266,32.412
10.834,46.4268,32.512
10.8672,46.4771,32.612
10.9007,46.6141,32.712
10.934,46.7836,32.812
10.9674,46.6287,32.912
11.0007,46.8603,33.012
11.0341,47.1246,33.112
11.0673,47.1618,33.212
11.1006,47.6017,33.312
11.134,47.7227,33.412
11.1674,47.7606,33.512
11.2006,48.0495,33.612
11.2338,48.2842,33.712
11.2672,48.4363,33.812
11.3005,47.6855,33.912
11.3341,47.5625,34.012
11.3674,47.7309,34.112
11.4004,47.0452,34.212
11.4338,46.9829,34.312
11.4672,47.1146,34.412
11.5006,47.2408,34.512
11.534,47.2429,34.612
11.5673,47.3659,34.712
11.6005,47.6281,34.812
11.634,47.4505,34.912
11.6673,47.2135,35.012
11.7005,46.5101,35.112
11.7338,46.7296,35.212
11.7672,46.8028,35.312
11.8005,47.0999,35.412
11.8339,47.4756,35.512
11.8673,47.6636,35.612
11.9008,47.2777,35.712
11.9342,47.2937,35.812
11.9672,47.2888,35.912
12.0003,47.228,36.012
12.0338,47.4663,36.112
12.0671,47.385,36.212
12.1005,47.415,36.312
12.1339,47.483,36.412
12.1672,47.7558,36.512
12.2006,44.9173,36.612
12.2339,44.2202,36.712
12.2672,44.2788,36.812
12.3007,44.4595,36.912
12.3341,44.1157,37.012
12.3676,43.3394,37.112
12.4008,36.3412,37.212
12.4339,31.8375,37.312
12.4672,31.7135,37.412
12.5004,31.662,37.512
12.5339,31.7424,37.612
12.5674,31.7757,37.712
12.6008,31.9726,37.812
12.6341,31.8696,37.912
12.6673,31.9121,38.012
12.7005,31.8266,38.112
12.7338,31.8574,38.212
12.7673,31.8417,38.312
12.8008,31.8412,38.412
12.8341,32.0732,38.512
12.8675,31.8196,38.612
12.9009,31.9593,38.712