File: Data/Selected_data/SSP_2022-12-17_B7_OPER.csv
Crossheadmm,LoadN,Timesec
0.0,0.0,0.000
0.03,1.0,0.100
0.06,1.0,0.200
0.1,1.0,0.300
0.13,1.0,0.400
0.16,1.0,0.500
0.2,1.0,0.600
0.23,1.0,0.700
0.26,1.0,0.800
0.3,1.0,0.900
0.33,1.0,1.000
0.36,1.0,1.100
0.39,1.0,1.200
0.43,1.0,1.300
0.46,1.0,1.400
0.5,1.0,1.500
0.53,1.0,1.600
0.56,1.0,1.700
0.6,1.0,1.800
0.63,1.0,1.900
0.66,1.0,2.000
0.7,1.0,2.100
0.73,1.0,2.200
0.76,1.0,2.300
0.8,1.0,2.400
0.83,1.0,2.500
0.86,1.0,2.600
0.9,1.0,2.700
0.93,1.0,2.800
0.96,1.0,2.900
1.0,1.0,3.000
1.03,1.0,3.100
1.06,1.0,3.200
1.1,1.0,3.300
1.13,1.0,3.400
1.16,1.0,3.500
1.2,1.0,3.600
1.23,1.0,3.700
1.26,1.0,3.800
1.3,2.0,3.900
1.33,2.0,4.000
1.36,2.0,4.100
1.4,2.0,4.200
1.43,2.0,4.300
1.46,2.0,4.400
1.5,2.0,4.500
1.53,2.0,4.600
1.56,2.0,4.700
1.6,2.0,4.800
1.63,2.0,4.900
1.66,2.0,5.000
1.7,2.0,5.100
1.73,2.0,5.200
1.76,2.0,5.300
1.79,2.0,5.400
1.83,2.0,5.500
1.86,2.0,5.600
1.89,2.0,5.700
1.93,2.0,5.800
1.96,2.0,5.900
2.0,2.0,6.000
2.03,2.0,6.100
2.06,2.0,6.200
2.09,2.0,6.300
2.13,2.0,6.400
2.16,2.0,6.500
2.19,2.0,6.600
2.23,2.0,6.700
2.26,2.0,6.800
2.29,2.0,6.900
2.33,3.0,7.000
2.36,3.0,7.100
2.39,3.0,7.200
2.43,3.0,7.300
2.46,3.0,7.400
2.5,3.0,7.500
2.53,3.0,7.600
2.56,4.0,7.700
2.59,4.0,7.800
2.63,4.0,7.900
2.66,4.0,8.000
2.69,4.0,8.100
2.73,4.0,8.200
2.76,4.0,8.300
2.79,4.0,8.400
2.83,4.0,8.500
2.86,4.0,8.600
2.89,4.0,8.700
2.93,4.0,8.800
2.96,4.0,8.900
2.99,4.0,9.000
3.03,4.0,9.100
3.06,4.0,9.200
3.09,4.0,9.300
3.13,4.0,9.400
3.16,4.0,9.500
3.19,4.0,9.600
3.23,5.0,9.700
3.26,5.0,9.800
3.29,5.0,9.900
3.33,5.0,10.000
3.36,5.0,10.100
3.39,5.0,10.200
3.43,5.0,10.300
3.46,5.0,10.400
3.49,5.0,10.500
3.53,5.0,10.600
3.56,5.0,10.700
3.59,5.0,10.800
3.63,5.0,10.900
3.66,6.0,11.000
3.69,6.0,11.100
3.73,6.0,11.200
3.76,6.0,11.300
3.79,6.0,11.400
3.82,6.0,11.500
3.86,7.0,11.600
3.89,7.0,11.700
3.93,7.0,11.800
3.96,7.0,11.900
3.99,7.0,12.000
4.03,7.0,12.100
4.06,7.0,12.200
4.09,7.0,12.300
4.12,7.0,12.400
4.16,7.0,12.500
4.19,7.0,12.600
4.22,7.0,12.700
4.26,7.0,12.800
4.29,7.0,12.900
4.33,7.0,13.000
4.36,7.0,13.100
4.39,7.0,13.200
4.43,7.0,13.300
4.46,8.0,13.400
4.49,8.0,13.500
4.53,8.0,13.600
4.56,8.0,13.700
4.59,8.0,13.800
4.63,8.0,13.900
4.66,9.0,14.000
4.69,9.0,14.100
4.72,9.0,14.200
4.76,9.0,14.300
4.79,9.0,14.400
4.82,9.0,14.500
4.86,9.0,14.600
4.89,9.0,14.700
4.93,9.0,14.800
4.96,9.0,14.900
4.99,9.0,15.000
5.02,9.0,15.100
5.06,9.0,15.200
5.09,9.0,15.300
5.12,9.0,15.400
5.16,9.0,15.500
5.19,9.0,15.600
5.22,9.0,15.700
5.26,9.0,15.800
5.29,9.0,15.900
5.32,9.0,16.000
5.36,9.0,16.100
5.39,9.0,16.200
5.42,9.0,16.300
5.46,9.0,16.400
5.49,9.0,16.500
5.52,9.0,16.600
5.56,9.0,16.700
5.59,9.0,16.800
5.62,9.0,16.900
5.66,9.0,17.000
5.69,9.0,17.100
5.72,10.0,17.200
5.76,10.0,17.300
5.79,10.0,17.400
5.82,10.0,17.500
5.86,10.0,17.600
5.89,10.0,17.700
5.92,10.0,17.800
5.96,10.0,17.900
5.99,10.0,18.000
6.02,10.0,18.100
6.06,10.0,18.200
6.09,10.0,18.300
6.12,10.0,18.400
6.15,10.0,18.500
6.19,11.0,18.600
6.22,11.0,18.700
6.26,11.0,18.800
6.29,11.0,18.900
6.32,11.0,19.000
6.36,11.0,19.100
6.39,11.0,19.200
6.42,12.0,19.300
6.46,12.0,19.400
6.49,12.0,19.500
6.52,12.0,19.600
6.55,12.0,19.700
6.59,12.0,19.800
6.62,12.0,19.900
6.65,12.0,20.000
6.69,12.0,20.100
6.72,12.0,20.200
6.75,12.0,20.300
6.79,12.0,20.400
6.82,12.0,20.500
6.86,12.0,20.600
6.89,12.0,20.700
6.92,12.0,20.800
6.96,12.0,20.900
6.99,12.0,21.000
7.02,12.0,21.100
7.05,12.0,21.200
7.09,12.0,21.300
7.12,12.0,21.400
7.15,12.0,21.500
7.19,12.0,21.600
7.22,12.0,21.700
7.26,12.0,21.800
7.29,12.0,21.900
7.32,12.0,22.000
7.35,12.0,22.100
7.39,12.0,22.200
7.42,12.0,22.300
7.45,12.0,22.400
7.49,12.0,22.500
7.52,11.0,22.600
7.56,11.0,22.700
7.59,11.0,22.800
7.62,11.0,22.900
7.66,11.0,23.000
7.69,10.0,23.100
7.72,10.0,23.200
7.75,10.0,23.300
7.79,10.0,23.400
7.82,10.0,23.500
7.85,10.0,23.600
7.89,10.0,23.700
7.92,11.0,23.800
7.95,11.0,23.900
7.99,11.0,24.000
8.02,11.0,24.100
8.05,12.0,24.200
8.09,12.0,24.300
8.12,12.0,24.400
8.15,12.0,24.500
8.19,12.0,24.600
8.22,12.0,24.700
8.26,13.0,24.800
8.29,13.0,24.900
8.32,13.0,25.000
8.36,13.0,25.100
8.39,13.0,25.200
8.42,13.0,25.300
8.45,13.0,25.400
8.49,14.0,25.500
8.52,14.0,25.600
8.55,14.0,25.700
8.59,14.0,25.800
8.62,14.0,25.900
8.65,14.0,26.000
8.69,14.0,26.100
8.72,14.0,26.200
8.75,14.0,26.300
8.79,14.0,26.400
8.82,14.0,26.500
8.85,14.0,26.600
8.89,14.0,26.700
8.92,15.0,26.800
8.95,15.0,26.900
8.99,15.0,27.000
9.02,15.0,27.100
9.05,15.0,27.200
9.09,15.0,27.300
9.12,16.0,27.400
9.15,16.0,27.500
9.19,16.0,27.600
9.22,16.0,27.700
9.25,16.0,27.800
9.29,16.0,27.900
9.32,16.0,28.000
9.35,17.0,28.100
9.39,17.0,28.200
9.42,18.0,28.300
9.45,18.0,28.400
9.49,18.0,28.500
9.52,18.0,28.600
9.55,19.0,28.700
9.59,19.0,28.800
9.62,19.0,28.900
9.65,20.0,29.000
9.69,20.0,29.100
9.72,20.0,29.200
9.75,21.0,29.300
9.79,21.0,29.400
9.82,21.0,29.500
9.85,21.0,29.600
9.89,22.0,29.700
9.92,22.0,29.800
9.95,22.0,29.900
9.99,23.0,30.000
10.02,23.0,30.100
10.05,23.0,30.200
10.09,23.0,30.300
10.12,24.0,30.400
10.15,24.0,30.500
10.19,24.0,30.600
10.22,25.0,30.700
10.25,25.0,30.800
10.29,25.0,30.900
10.32,26.0,31.000
10.35,26.0,31.100
10.39,26.0,31.200
10.42,27.0,31.300
10.45,27.0,31.400
10.49,27.0,31.500
10.52,28.0,31.600
10.55,28.0,31.700
10.59,29.0,31.800
10.62,29.0,31.900
10.65,30.0,32.000
10.69,30.0,32.100
10.72,30.0,32.200
10.75,31.0,32.300
10.79,31.0,32.400
10.82,31.0,32.500
10.85,32.0,32.600
10.89,32.0,32.700
10.92,32.0,32.800
10.95,32.0,32.900
10.99,33.0,33.000
11.02,34.0,33.100
11.05,34.0,33.200
11.09,34.0,33.300
11.12,34.0,33.400
11.15,35.0,33.500
11.19,35.0,33.600
11.22,36.0,33.700
11.25,36.0,33.800
11.29,36.0,33.900
11.32,37.0,34.000
11.35,38.0,34.100
11.38,38.0,34.200
11.42,39.0,34.300
11.45,40.0,34.400
11.49,40.0,34.500
11.52,41.0,34.600
11.55,41.0,34.700
11.59,41.0,34.800
11.62,42.0,34.900
11.65,43.0,35.000
11.69,43.0,35.100
11.72,43.0,35.200
11.75,44.0,35.300
11.79,44.0,35.400
11.82,45.0,35.500
11.85,45.0,35.600
11.89,45.0,35.700
11.92,45.0,35.800
11.95,45.0,35.900
11.99,44.0,36.000
12.02,43.0,36.100
12.05,43.0,36.200
12.09,43.0,36.300
12.12,43.0,36.400
12.15,43.0,36.500
12.19,43.0,36.600
12.22,43.0,36.700
12.25,43.0,36.800
12.29,43.0,36.900
12.32,43.0,37.000
12.35,43.0,37.100
12.38,44.0,37.200
12.42,45.0,37.300
12.45,45.0,37.400
12.48,45.0,37.500
12.52,44.0,37.600
12.55,43.0,37.700
12.59,43.0,37.800
12.62,43.0,37.900
12.65,42.0,38.000
12.69,41.0,38.100
12.72,41.0,38.200
12.75,41.0,38.300
12.78,40.0,38.400
12.82,41.0,38.500
12.85,41.0,38.600
12.88,42.0,38.700
12.92,43.0,38.800
12.95,43.0,38.900
12.99,45.0,39.000
13.02,45.0,39.100
13.05,46.0,39.200
13.08,47.0,39.300
13.12,47.0,39.400
13.15,48.0,39.500
13.18,49.0,39.600
13.22,49.0,39.700
13.25,50.0,39.800
13.28,51.0,39.900
13.32,51.0,40.000
13.35,52.0,40.100
13.38,52.0,40.200
13.42,53.0,40.300
13.45,54.0,40.400
13.48,54.0,40.500
13.52,55.0,40.600
13.55,56.0,40.700
13.58,56.0,40.800
13.62,57.0,40.900
13.65,58.0,41.000
13.68,58.0,41.100
13.71,60.0,41.200
13.75,60.0,41.300
13.78,62.0,41.400
13.82,63.0,41.500
13.85,64.0,41.600
13.88,64.0,41.700
13.92,65.0,41.800
13.95,67.0,41.900
13.98,68.0,42.000
14.02,68.0,42.100
14.05,69.0,42.200
14.08,71.0,42.300
14.12,72.0,42.400
14.15,72.0,42.500
14.18,73.0,42.600
14.22,75.0,42.700
14.25,75.0,42.800
14.28,76.0,42.900
14.32,78.0,43.000
14.35,79.0,43.100
14.38,79.0,43.200
14.42,80.0,43.300
14.45,82.0,43.400
14.48,83.0,43.500
14.52,83.0,43.600
14.55,84.0,43.700
14.58,86.0,43.800
14.62,86.0,43.900
14.65,87.0,44.000
14.68,89.0,44.100
14.72,90.0,44.200
14.75,90.0,44.300
14.78,91.0,44.400
14.81,93.0,44.500
14.85,94.0,44.600
14.88,94.0,44.700
14.92,95.0,44.800
14.95,96.0,44.900
14.98,97.0,45.000
15.02,97.0,45.100
15.05,98.0,45.200
15.08,99.0,45.300
15.11,100.0,45.400
15.15,100.0,45.500
15.18,101.0,45.600
15.21,101.0,45.700
15.25,102.0,45.800
15.28,102.0,45.900
15.31,103.0,46.000
15.35,103.0,46.100
15.38,103.0,46.200
15.41,104.0,46.300
15.45,104.0,46.400
15.48,104.0,46.500
15.51,104.0,46.600
15.55,105.0,46.700
15.58,104.0,46.800
15.61,104.0,46.900
15.65,103.0,47.000
15.68,102.0,47.100
15.71,102.0,47.200
15.75,101.0,47.300
15.78,101.0,47.400
15.81,100.0,47.500
15.85,100.0,47.600
15.88,99.0,47.700
15.91,99.0,47.800
15.95,100.0,47.900
15.98,100.0,48.000
16.01,101.0,48.100
16.05,101.0,48.200
16.08,101.0,48.300
16.11,102.0,48.400
16.15,102.0,48.500
16.18,103.0,48.600
16.21,104.0,48.700
16.25,104.0,48.800
16.28,105.0,48.900
16.31,105.0,49.000
16.35,105.0,49.100
16.38,105.0,49.200
16.41,105.0,49.300
16.45,105.0,49.400
16.48,105.0,49.500
16.51,105.0,49.600
16.55,105.0,49.700
16.58,105.0,49.800
16.61,106.0,49.900
16.65,106.0,50.000
16.68,107.0,50.100
16.71,108.0,50.200
16.75,108.0,50.300
16.78,109.0,50.400
16.81,111.0,50.500
16.84,112.0,50.600
16.88,112.0,50.700
16.91,110.0,50.800
16.95,108.0,50.900
16.98,105.0,51.000
17.01,103.0,51.100
17.05,101.0,51.200
17.08,98.0,51.300
17.11,95.0,51.400
17.14,91.0,51.500
17.18,89.0,51.600
17.21,90.0,51.700
17.24,91.0,51.800
17.28,91.0,51.900
17.31,92.0,52.000
17.35,93.0,52.100
17.38,93.0,52.200
17.41,94.0,52.300
17.45,94.0,52.400
17.48,95.0,52.500
17.51,96.0,52.600
17.54,97.0,52.700
17.58,97.0,52.800
17.61,97.0,52.900
17.64,97.0,53.000
17.68,98.0,53.100
17.71,99.0,53.200
17.74,100.0,53.300
17.78,101.0,53.400
17.81,101.0,53.500
17.85,102.0,53.600
17.88,103.0,53.700
17.91,104.0,53.800
17.94,105.0,53.900
17.98,105.0,54.000
18.01,106.0,54.100
18.04,106.0,54.200
18.08,107.0,54.300
18.11,108.0,54.400
18.14,108.0,54.500
18.18,109.0,54.600
18.21,110.0,54.700
18.25,111.0,54.800
18.28,112.0,54.900
18.31,112.0,55.000
18.34,113.0,55.100
18.38,115.0,55.200
18.41,115.0,55.300
18.44,116.0,55.400
18.48,116.0,55.500
18.51,116.0,55.600
18.54,117.0,55.700
18.58,117.0,55.800
18.61,118.0,55.900
18.64,118.0,56.000
18.68,119.0,56.100
18.71,119.0,56.200
18.74,119.0,56.300
18.78,119.0,56.400
18.81,119.0,56.500
18.84,120.0,56.600
18.88,120.0,56.700
18.91,120.0,56.800
18.94,120.0,56.900
18.98,120.0,57.000
19.01,79.0,57.100
19.04,47.0,57.200
19.08,45.0,57.300
19.11,44.0,57.400
19.14,44.0,57.500
19.18,44.0,57.600
19.21,44.0,57.700
19.24,44.0,57.800
19.28,44.0,57.900
19.31,44.0,58.000
19.34,44.0,58.100
19.37,44.0,58.200
19.41,44.0,58.300
19.44,43.0,58.400
19.48,43.0,58.500
19.51,43.0,58.600
19.54,43.0,58.700
19.58,42.0,58.800
19.61,41.0,58.900
19.64,41.0,59.000
19.68,41.0,59.100
19.71,41.0,59.200
19.74,41.0,59.300
19.78,41.0,59.400
19.81,41.0,59.500
19.84,41.0,59.600
19.88,41.0,59.700
19.91,41.0,59.800
19.94,41.0,59.900
19.98,41.0,60.000
20.01,41.0,60.100
20.04,41.0,60.200
20.07,41.0,60.300
20.11,41.0,60.400
20.14,41.0,60.500
20.18,41.0,60.600
20.21,41.0,60.700
20.24,40.0,60.800
20.28,40.0,60.900
20.31,40.0,61.000
20.34,39.0,61.100
20.38,38.0,61.200
20.41,38.0,61.300
20.44,38.0,61.400
20.48,38.0,61.500
20.51,38.0,61.600
20.54,38.0,61.700
20.58,38.0,61.800
20.61,38.0,61.900
20.64,38.0,62.000
20.68,38.0,62.100
20.71,38.0,62.200
20.74,38.0,62.300
20.78,38.0,62.400
20.81,38.0,62.500
20.84,37.0,62.600
20.88,37.0,62.700
20.91,36.0,62.800
20.94,36.0,62.900
20.98,36.0,63.000
21.01,36.0,63.100
21.04,35.0,63.200
21.08,35.0,63.300
21.11,34.0,63.400
21.14,34.0,63.500
21.17,34.0,63.600
21.21,34.0,63.700
21.24,34.0,63.800
21.28,34.0,63.900
21.31,34.0,64.000
21.34,34.0,64.100
21.38,34.0,64.200
21.41,34.0,64.300
21.44,34.0,64.400
21.47,34.0,64.500
21.51,33.0,64.600
21.54,33.0,64.700
21.58,33.0,64.800
21.61,32.0,64.900
21.64,32.0,65.000
21.68,32.0,65.100
21.71,32.0,65.200
21.74,32.0,65.300
21.77,32.0,65.400
21.81,32.0,65.500
21.84,31.0,65.600
21.87,31.0,65.700
21.91,31.0,65.800
21.94,31.0,65.900
21.98,31.0,66.000
22.01,31.0,66.100
22.04,30.0,66.200
22.08,30.0,66.300
22.11,30.0,66.400
22.14,29.0,66.500
22.18,29.0,66.600
22.21,28.0,66.700
22.24,28.0,66.800
22.28,27.0,66.900
22.31,27.0,67.000
22.34,27.0,67.100
22.38,27.0,67.200
22.41,26.0,67.300
22.44,26.0,67.400
22.47,26.0,67.500
22.51,26.0,67.600
22.54,26.0,67.700
22.58,26.0,67.800
22.61,26.0,67.900
22.64,26.0,68.000
22.68,26.0,68.100
22.71,26.0,68.200
22.74,25.0,68.300
22.78,25.0,68.400
22.81,25.0,68.500
22.84,25.0,68.600
22.87,25.0,68.700
22.91,25.0,68.800
22.94,24.0,68.900
22.97,24.0,69.000
23.01,24.0,69.100
23.04,24.0,69.200
23.07,24.0,69.300
23.11,24.0,69.400