File: Data/Selected_data/SSP_2025-03-20_D7_NO.csv
Crossheadmm,LoadN,Timesec
0.0897,5.74163,0.301
0.123,6.44415,0.401
0.1565,7.3886,0.501
0.1898,8.21364,0.601
0.2233,9.29924,0.701
0.2567,10.209,0.801
0.2899,11.1427,0.901
0.3233,12.2315,1.001
0.3564,13.6221,1.101
0.3897,14.723,1.201
0.4233,15.8474,1.301
0.4567,17.3292,1.401
0.4901,18.1711,1.501
0.5233,19.7797,1.601
0.5565,21.1748,1.701
0.5898,22.9989,1.801
0.623,24.4914,1.901
0.6562,26.3583,2.001
0.6896,27.8021,2.101
0.7232,30.0959,2.201
0.7567,31.6284,2.301
0.7898,33.6478,2.401
0.8229,35.5149,2.501
0.8562,37.6131,2.601
0.8895,39.7129,2.701
0.923,41.9151,2.801
0.9564,43.9839,2.901
0.9897,45.8785,3.001
1.0232,47.9387,3.101
1.0566,50.115,3.201
1.0898,52.2483,3.301
1.123,54.1143,3.401
1.156,56.5955,3.501
1.1893,58.8703,3.601
1.223,61.3006,3.701
1.2564,63.7353,3.801
1.2898,65.9411,3.901
1.3231,68.2511,4.001
1.3563,70.0005,4.101
1.3895,71.4125,4.201
1.4228,71.944,4.301
1.4561,73.3903,4.401
1.4896,75.1486,4.501
1.523,77.5354,4.601
1.5565,80.6643,4.701
1.5898,82.8123,4.801
1.6229,85.115,4.901
1.6561,87.9043,5.001
1.6894,91.0838,5.101
1.7227,94.2407,5.201
1.7563,97.6266,5.301
1.7897,100.754,5.401
1.823,104.32,5.501
1.8562,108.067,5.601
1.8894,111.79,5.701
1.9226,115.568,5.801
1.956,119.59,5.901
1.9894,123.313,6.001
2.0228,127.392,6.101
2.0562,131.259,6.201
2.0895,134.671,6.301
2.1227,138.593,6.401
2.1563,142.965,6.501
2.1899,146.85,6.601
2.2229,151.115,6.701
2.2556,154.978,6.801
2.2893,159.233,6.901
2.323,163.534,7.001
2.3565,167.763,7.101
2.3897,171.751,7.201
2.4227,176.039,7.301
2.456,180.03,7.401
2.4894,184.112,7.501
2.5227,188.034,7.601
2.5561,192.175,7.701
2.5894,196.031,7.801
2.623,199.971,7.901
2.6564,203.953,8.001
2.6896,207.812,8.101
2.723,211.891,8.201
2.7562,215.807,8.301
2.7895,219.917,8.401
2.8231,223.267,8.501
2.8565,223.41,8.601
2.8899,226.744,8.701
2.9231,230.14,8.801
2.9564,233.279,8.901
2.9896,236.589,9.001
3.0229,239.966,9.101
3.0561,243.002,9.201
3.0895,246.232,9.301
3.1231,249.467,9.401
3.1567,252.752,9.501
3.1898,252.954,9.601
3.223,250.855,9.701
3.2564,244.638,9.801
3.2897,244.812,9.901
3.3231,246.329,10.001
3.3565,247.825,10.101
3.3899,250.414,10.201
3.4234,252.999,10.301
3.4568,254.087,10.401
3.4899,255.404,10.501
3.5233,255.441,10.601
3.5563,251.09,10.701
3.5896,252.374,10.801
3.6232,249.931,10.901
3.6567,237.179,11.001
3.6901,233.119,11.101
3.7234,230.099,11.201
3.7565,218.6,11.301
3.7899,188.547,11.401
3.8232,176.985,11.501
3.8565,154.222,11.601
3.8898,154.641,11.701
3.9233,154.919,11.801
3.9568,154.677,11.901
3.9901,156.168,12.001
4.0233,157.674,12.101
4.0565,158.15,12.201
4.0898,158.258,12.301
4.1231,157.32,12.401
4.1566,154.303,12.501
4.19,153.159,12.601
4.2234,149.908,12.701
4.2566,122.516,12.801
4.2897,117.497,12.901
4.3231,112.085,13.001
4.3565,98.8282,13.101
4.3898,99.8899,13.201
4.4232,101.026,13.301
4.4565,102.29,13.401
4.4899,100.335,13.501
4.5231,100.733,13.601
4.5567,101.696,13.701
4.5903,103.361,13.801
4.6231,104.372,13.901
4.6559,105.578,14.001
4.6895,107.079,14.101
4.7233,108.29,14.201
4.7567,109.127,14.301
4.7898,108.631,14.401
4.8229,106.835,14.501
4.8562,106.287,14.601
4.8895,106.404,14.701
4.9227,107.212,14.801
4.9561,108.104,14.901
4.9895,109.558,15.001
5.0231,110.373,15.101
5.0564,110.23,15.201
5.0897,107.046,15.301
5.123,100.398,15.401
5.1562,99.7691,15.501
5.1895,100.427,15.601
5.223,101.385,15.701
5.2565,102.242,15.801
5.2897,102.864,15.901
5.323,103.253,16.001
5.3562,102.205,16.101
5.3895,101.916,16.201
5.4227,102.933,16.301
5.456,103.6,16.401
5.4894,104.353,16.501
5.5231,104.261,16.601
5.5565,100.273,16.701
5.5896,87.4537,16.801
5.6228,85.284,16.901
5.6562,85.6161,17.001
5.6894,86.2399,17.101
5.7229,86.8678,17.201
5.7563,87.2541,17.301
5.7897,87.7484,17.401
5.8231,88.1326,17.501
5.8565,87.1079,17.601
5.8896,85.3304,17.701
5.9229,34.9221,17.801
5.956,29.8507,17.901
5.9893,28.92,18.001
6.0229,28.7115,18.101
6.0564,28.7749,18.201
6.0898,28.4455,18.301
6.1231,28.7013,18.401
6.1563,28.8742,18.501
6.1896,29.1509,18.601
6.2228,29.2951,18.701
6.2561,29.465,18.801
6.2895,29.5719,18.901
6.323,29.7538,19.001
6.3565,30.147,19.101
6.3898,30.2402,19.201
6.423,30.5058,19.301
6.4561,30.7848,19.401
6.4894,31.0022,19.501
6.5227,31.0624,19.601
6.5563,31.3725,19.701
6.5898,31.5959,19.801
6.623,31.8134,19.901
6.6563,32.1159,20.001
6.6895,32.2463,20.101
6.7229,32.5352,20.201
6.7563,32.7123,20.301
6.7896,32.6743,20.401
6.823,32.9834,20.501
6.8565,33.2289,20.601
6.8898,33.2994,20.701
6.9231,33.3384,20.801
6.9568,33.4583,20.901
6.9903,33.7286,21.001
7.0229,34.0516,21.101
7.056,34.1126,21.201
7.0896,33.7998,21.301
7.1234,33.7844,21.401
7.1568,34.0608,21.501
7.1899,34.0449,21.601
7.2231,33.8505,21.701
7.2565,33.4688,21.801
7.2898,33.2741,21.901
7.3231,32.9783,22.001
7.3564,32.4484,22.101
7.3898,32.1053,22.201
7.4234,31.6408,22.301
7.4567,31.4349,22.401
7.4901,31.2059,22.501
7.5233,31.2686,22.601
7.5566,31.2206,22.701
7.5899,31.3123,22.801
7.6233,31.2526,22.901
7.6567,31.2684,23.001
7.6901,31.2239,23.101
7.7234,31.3776,23.201
7.7567,31.4935,23.301
7.79,31.4593,23.401
7.8232,31.7672,23.501
7.8564,31.7251,23.601
7.8898,31.8729,23.701
7.9235,31.8582,23.801
7.957,32.0365,23.901
7.99,31.7786,24.001
8.0233,31.5174,24.101
8.0567,31.6164,24.201
8.0899,31.7413,24.301
8.1234,31.5536,24.401
8.1567,31.3696,24.501
8.1901,31.8407,24.601
8.2236,31.5576,24.701
8.2569,31.68,24.801
8.2901,31.4942,24.901
8.3233,31.4093,25.001
8.3565,31.426,25.101
8.3898,31.1538,25.201
8.4233,30.887,25.301
8.4567,31.0165,25.401
8.4902,31.0144,25.501
8.5235,30.9114,25.601
8.5567,31.0276,25.701
8.59,31.013,25.801
8.6232,30.9719,25.901
8.6564,30.9271,26.001
8.6897,30.8881,26.101
8.7233,30.9481,26.201
8.7568,30.8231,26.301
8.7901,30.8686,26.401
8.8232,30.8496,26.501
8.8564,30.9021,26.601
8.8897,30.6166,26.701
8.923,30.6864,26.801
8.9565,30.7242,26.901
8.9899,30.4396,27.001
9.0232,29.6331,27.101
9.0565,29.2896,27.201
9.0896,29.108,27.301
9.123,29.0313,27.401
9.1564,28.9762,27.501
9.1896,28.8424,27.601
9.2229,28.8022,27.701
9.2564,28.3334,27.801
9.2897,28.6589,27.901
9.323,28.5041,28.001
9.3567,28.4459,28.101
9.3901,28.4179,28.201
9.4226,28.114,28.301
9.4558,28.2931,28.401
9.4894,28.0662,28.501
9.5232,27.9848,28.601
9.5565,28.0095,28.701
9.5896,27.8539,28.801
9.6229,28.1021,28.901
9.6562,27.7177,29.001
9.6895,27.6561,29.101
9.7228,27.776,29.201
9.7561,27.6399,29.301
9.7896,27.488,29.401
9.8231,27.5338,29.501
9.8564,27.3517,29.601
9.8897,27.2777,29.701
9.923,27.1374,29.801
9.9562,27.1269,29.901
9.9895,27.0493,30.001
10.0229,26.9206,30.101
10.0564,26.9121,30.201
10.0897,26.5501,30.301
10.123,26.4703,30.401
10.1563,26.5617,30.501
10.1896,26.3104,30.601
10.2228,26.1932,30.701
10.256,26.0068,30.801
10.2894,25.9187,30.901
10.3232,25.8562,31.001
10.3564,25.6359,31.101
10.3895,25.5785,31.201
10.4229,25.5986,31.301