File: Data/Selected_data/SSP_2025-03-19_D7_OPER.csv
Crossheadmm,LoadN,Timesec
0.0346,0.349895,0.115
0.0678,0.455084,0.215
0.1012,0.478245,0.315
0.1348,0.665736,0.415
0.1682,0.690635,0.515
0.2017,0.642473,0.615
0.2349,0.782314,0.715
0.2682,0.741548,0.815
0.3013,0.89686,0.915
0.3343,0.832412,1.015
0.3679,0.87731,1.115
0.4015,0.987097,1.215
0.4348,1.01148,1.315
0.4682,1.00876,1.415
0.5014,0.993507,1.515
0.5346,1.17226,1.615
0.5677,1.21265,1.715
0.601,1.34012,1.815
0.6345,1.39923,1.915
0.668,1.50686,2.015
0.7014,1.56185,2.115
0.7349,1.70668,2.215
0.7682,1.67025,2.315
0.8014,1.85539,2.415
0.8345,2.04091,2.515
0.8678,2.08934,2.615
0.9012,2.31967,2.715
0.9347,2.3847,2.815
0.968,2.42068,2.915
1.0013,2.59128,3.015
1.0345,2.78823,3.115
1.068,2.8283,3.215
1.1012,3.08528,3.315
1.1345,3.18909,3.415
1.1678,3.40988,3.515
1.2013,3.54993,3.615
1.2347,3.74095,3.715
1.2681,3.92134,3.815
1.3014,3.98269,3.915
1.3347,4.26923,4.015
1.3679,4.5114,4.115
1.4011,4.44977,4.215
1.4345,4.90159,4.315
1.4678,5.17577,4.415
1.5012,5.26801,4.515
1.5346,5.4615,4.615
1.5681,5.78313,4.715
1.6014,6.04986,4.815
1.6343,6.3745,4.915
1.6676,6.78822,5.015
1.7011,6.95302,5.115
1.7346,7.39593,5.215
1.768,7.48691,5.315
1.8013,7.83874,5.415
1.8347,8.23592,5.515
1.8681,8.5797,5.615
1.9015,8.84728,5.715
1.9347,9.32887,5.815
1.9678,9.56645,5.915
2.0007,9.98125,6.015
2.0342,10.5807,6.115
2.0679,10.8551,6.215
2.1013,11.2365,6.315
2.1347,11.6868,6.415
2.1678,12.0151,6.515
2.201,12.5478,6.615
2.2344,13.1982,6.715
2.2679,13.5926,6.815
2.3013,14.1498,6.915
2.3347,14.4558,7.015
2.3681,15.2405,7.115
2.4014,15.6671,7.215
2.4346,16.131,7.315
2.4678,16.7457,7.415
2.5011,17.1262,7.515
2.5346,17.7053,7.615
2.568,18.273,7.715
2.6015,18.772,7.815
2.6347,19.5345,7.915
2.668,19.8856,8.015
2.7012,20.601,8.115
2.7343,21.1437,8.215
2.7678,21.4824,8.315
2.8014,22.2887,8.415
2.8347,22.7675,8.515
2.8682,23.4482,8.615
2.9014,24.0639,8.715
2.9346,24.3381,8.815
2.9678,25.045,8.915
3.0012,25.476,9.015
3.0346,25.8914,9.115
3.0681,26.4331,9.215
3.1016,26.9035,9.315
3.1351,27.5079,9.415
3.1683,27.653,9.515
3.2015,28.0971,9.615
3.2347,28.8599,9.715
3.268,29.3449,9.815
3.3013,30.1243,9.915
3.3348,30.6934,10.015
3.3682,31.3012,10.115
3.4014,32.0357,10.215
3.4348,32.491,10.315
3.4682,32.5238,10.415
3.5014,32.2718,10.515
3.5347,32.8125,10.615
3.568,33.1387,10.715
3.6015,33.7094,10.815
3.6349,33.6087,10.915
3.6683,34.0832,11.015
3.7017,34.4041,11.115
3.7349,35.224,11.215
3.7681,35.8122,11.315
3.8014,36.4721,11.415
3.8347,35.4337,11.515
3.868,34.6849,11.615
3.9014,35.1425,11.715
3.9349,35.8451,11.815
3.9685,36.6106,11.915
4.0017,36.9928,12.015
4.0346,37.001,12.115
4.0679,37.3147,12.215
4.1013,37.4982,12.315
4.1349,37.9785,12.415
4.1683,38.3832,12.515
4.2017,38.3158,12.615
4.2351,38.972,12.715
4.2685,39.5087,12.815
4.3019,40.4848,12.915
4.3351,41.3047,13.015
4.3679,41.1505,13.115
4.401,41.7492,13.215
4.4346,42.5991,13.315
4.4683,43.3615,13.415
4.5017,43.3282,13.515
4.535,44.1308,13.615
4.5681,45.0002,13.715
4.6012,45.6065,13.815
4.6345,45.2594,13.915
4.6681,44.7045,14.015
4.7015,45.3516,14.115
4.7349,45.9533,14.215
4.7684,46.9307,14.315
4.8016,47.7693,14.415
4.8348,48.3243,14.515
4.868,49.0674,14.615
4.9013,49.5136,14.715
4.9348,49.9957,14.815
4.9683,50.6964,14.915
5.0016,51.1404,15.015
5.0349,51.5089,15.115
5.0681,50.088,15.215
5.1013,50.5603,15.315
5.1344,51.0294,15.415
5.1679,51.5141,15.515
5.2014,52.2383,15.615
5.2349,53.0097,15.715
5.2681,53.4224,15.815
5.3014,53.6894,15.915
5.3346,54.2754,16.015
5.3677,54.9808,16.115
5.4011,55.6007,16.215
5.4345,55.0871,16.315
5.468,55.8052,16.415
5.5015,56.6437,16.515
5.5349,57.0714,16.615
5.5682,55.2039,16.715
5.6014,54.3825,16.815
5.6345,55.1146,16.915
5.6678,56.395,17.015
5.7011,56.5075,17.115
5.7346,57.0223,17.215
5.7679,57.9478,17.315
5.8011,58.4247,17.415
5.8346,58.9115,17.515
5.868,59.6502,17.615
5.9011,60.8334,17.715
5.9344,61.9297,17.815
5.9677,63.0848,17.915
6.0012,64.3478,18.015
6.0346,65.5234,18.115
6.0679,66.0586,18.215
6.1013,67.1322,18.315
6.1345,66.5712,18.415
6.1678,67.4601,18.515
6.2009,67.8802,18.615
6.2343,68.7985,18.715
6.2677,69.8951,18.815
6.301,70.5911,18.915
6.3345,71.5787,19.015
6.3682,72.2338,19.115
6.4012,73.0091,19.215
6.4343,73.8501,19.315
6.4675,73.5626,19.415
6.501,74.3035,19.515
6.5346,73.4116,19.615
6.5679,73.6401,19.715
6.6012,74.4525,19.815
6.6348,69.1751,19.915
6.6681,62.6378,20.015
6.7016,63.33,20.115
6.7348,63.2941,20.215
6.7674,64.1641,20.315
6.8008,57.2869,20.415
6.8345,58.2674,20.515
6.8679,59.3586,20.615
6.9015,60.5236,20.715
6.9347,61.8199,20.815
6.9678,62.9252,20.915
7.0009,63.9459,21.015
7.0344,64.8906,21.115
7.0679,65.1816,21.215
7.1013,66.2125,21.315
7.1346,67.3846,21.415
7.1681,68.4807,21.515
7.2013,69.729,21.615
7.2345,70.643,21.715
7.2678,71.7473,21.815
7.3011,72.7688,21.915
7.3346,73.7438,22.015
7.3681,74.876,22.115
7.4014,76.0219,22.215
7.4347,77.1346,22.315
7.4679,78.0639,22.415
7.5011,79.0862,22.515
7.5343,80.3234,22.615
7.5677,81.6796,22.715
7.6012,82.6717,22.815
7.6347,83.9151,22.915
7.6681,85.203,23.015
7.7013,86.3716,23.115
7.7345,87.6948,23.215
7.7678,88.9844,23.315
7.8012,90.4072,23.415
7.8345,91.5396,23.515
7.868,92.7963,23.615
7.9015,93.925,23.715
7.935,92.7895,23.815
7.9683,94.0091,23.915
8.0014,95.1768,24.015
8.0346,96.5764,24.115
8.068,97.794,24.215
8.1013,98.5665,24.315
8.1347,99.8686,24.415
8.1681,101.166,24.515
8.2013,102.276,24.615
8.2348,103.603,24.715
8.2682,104.872,24.815
8.3014,106.197,24.915
8.3347,107.467,25.015
8.3679,108.723,25.115
8.4013,109.565,25.215
8.4349,110.733,25.315
8.4683,111.163,25.415
8.5016,112.161,25.515
8.5348,113.12,25.615
8.5681,113.94,25.715
8.6013,114.949,25.815
8.6346,116.135,25.915
8.6679,113.205,26.015
8.7013,111.126,26.115
8.7349,108.056,26.215
8.7685,93.0541,26.315
8.8016,92.9339,26.415
8.8347,93.5338,26.515
8.868,93.2839,26.615
8.9014,93.605,26.715
8.9349,93.1708,26.815
8.9683,92.0319,26.915
9.0017,88.6574,27.015
9.0351,88.0171,27.115
9.0685,82.4634,27.215
9.1019,79.6434,27.315
9.1352,77.487,27.415
9.1677,72.674,27.515
9.201,70.613,27.615
9.2347,68.7391,27.715
9.2683,67.5806,27.815
9.3017,65.9191,27.915
9.3351,63.3976,28.015
9.3681,62.1063,28.115
9.4013,61.6041,28.215
9.4346,61.789,28.315
9.4681,60.9424,28.415
9.5015,61.4313,28.515
9.535,61.4124,28.615
9.5684,61.5869,28.715
9.6017,61.7881,28.815
9.6348,61.7179,28.915
9.668,61.3368,29.015
9.7013,61.4871,29.115
9.7347,57.1524,29.215
9.7683,55.4325,29.315
9.8016,54.0073,29.415
9.8349,53.3549,29.515
9.868,52.7326,29.615
9.9012,52.6228,29.715
9.9344,51.272,29.815
9.9678,51.2163,29.915
10.0012,50.9736,30.015
10.0347,45.0294,30.115
10.068,44.0906,30.215
10.1013,43.5064,30.315
10.1344,43.1625,30.415
10.1678,42.8121,30.515
10.2011,42.826,30.615
10.2343,42.7659,30.715
10.2678,42.3652,30.815
10.3014,42.4425,30.915
10.3347,42.4906,31.015
10.368,42.5379,31.115
10.4012,42.79,31.215
10.4344,42.9195,31.315
10.4677,42.9166,31.415
10.501,42.8592,31.515
10.5344,43.2015,31.615
10.5679,43.5069,31.715
10.6011,43.6229,31.815
10.6346,44.4241,31.915
10.6679,44.2705,32.015
10.7011,44.7293,32.115
10.7344,44.8277,32.215
10.7677,45.348,32.315
10.8011,45.3333,32.415
10.8346,45.8045,32.515
10.8679,46.2103,32.615
10.9013,46.2208,32.715
10.9345,46.6462,32.815
10.9679,47.1065,32.915
11.0011,47.0884,33.015
11.0342,47.505,33.115
11.0677,47.7615,33.215
11.1011,48.0061,33.315
11.1346,48.2813,33.415
11.1682,48.5766,33.515
11.2012,48.6568,33.615
11.2344,48.6894,33.715
11.2677,48.6341,33.815
11.301,48.6732,33.915
11.3346,48.7613,34.015
11.3681,49.0339,34.115
11.4013,49.0217,34.215
11.4348,49.065,34.315
11.4682,49.5049,34.415
11.5016,49.2883,34.515
11.5347,49.4232,34.615
11.5673,49.4239,34.715
11.6007,49.8558,34.815
11.6345,50.0521,34.915
11.668,50.2476,35.015
11.7015,50.5174,35.115
11.7347,50.6833,35.215
11.7678,50.6566,35.315
11.801,50.3212,35.415
11.8344,50.2376,35.515
11.8678,50.329,35.615
11.9013,50.0521,35.715
11.9347,40.634,35.815
11.9682,39.0441,35.915
12.0014,38.6287,36.015
12.0347,38.2572,36.115
12.0678,38.5941,36.215
12.1011,38.8642,36.315
12.1346,38.9188,36.415
12.1682,39.0256,36.515
12.2015,38.986,36.615
12.2349,39.0086,36.715
12.2681,39.325,36.815
12.3012,40.0785,36.915
12.3345,39.9939,37.015
12.3679,40.3004,37.115
12.4014,40.5828,37.215
12.4348,40.9014,37.315
12.4681,41.0503,37.415
12.5015,41.5479,37.515
12.5346,41.7284,37.615
12.568,41.9876,37.715
12.6013,42.3752,37.815
12.6346,42.8981,37.915
12.6681,43.208,38.015
12.7017,43.7175,38.115
12.7351,43.8161,38.215
12.7684,43.9768,38.315
12.8015,44.5022,38.415
12.8348,44.8259,38.515
12.8681,45.0631,38.615
12.9014,45.3325,38.715
12.9347,44.805,38.815
12.9681,44.754,38.915
13.0014,45.2115,39.015
13.035,45.4437,39.115
13.0682,45.3443,39.215
13.1015,45.642,39.315
13.1347,45.8624,39.415
13.168,46.0623,39.515
13.2014,46.3549,39.615
13.235,46.4081,39.715
13.2683,45.6782,39.815
13.3017,45.4652,39.915
13.3349,45.5378,40.015
13.3682,45.4336,40.115
13.4014,45.5725,40.215
13.4346,45.7278,40.315
13.4679,45.8799,40.415
13.5014,45.9449,40.515
13.5349,46.0079,40.615
13.5685,46.2762,40.715
13.6015,46.5555,40.815
13.6347,46.7251,40.915
13.6681,46.923,41.015
13.7013,47.1117,41.115
13.7348,47.1801,41.215
13.7684,47.394,41.315
13.8017,47.3288,41.415
13.8352,47.5603,41.515
13.8685,47.755,41.615
13.9019,47.8246,41.715
13.935,47.8792,41.815
13.9676,47.8378,41.915
14.0009,47.9755,42.015
14.0348,48.0258,42.115
14.0683,47.7544,42.215
14.1017,47.3324,42.315
14.135,47.1573,42.415
14.168,47.1806,42.515
14.2013,46.9658,42.615
14.2346,46.853,42.715
14.268,47.024,42.815
14.3014,47.0518,42.915
14.3349,47.1082,43.015
14.3684,44.814,43.115
14.4016,43.2165,43.215
14.4347,43.0216,43.315
14.4679,42.1292,43.415
14.5012,41.8354,43.515
14.5346,41.7736,43.615
14.5683,38.9751,43.715
14.6016,38.272,43.815
14.6348,37.5258,43.915
14.668,35.4933,44.015
14.7011,35.2499,44.115
14.7344,34.3706,44.215
14.7678,34.5615,44.315
14.8011,33.9652,44.415
14.8346,33.9928,44.515
14.8679,34.1139,44.615
14.9012,34.1262,44.715
14.9344,34.0261,44.815
14.9677,34.4174,44.915
15.0011,34.4009,45.015
15.0343,34.5346,45.115
15.0678,34.5324,45.215
15.1014,34.6806,45.315
15.1347,34.7029,45.415
15.168,34.7344,45.515
15.2013,34.7317,45.615
15.2345,34.8228,45.715
15.2678,34.9694,45.815
15.301,34.8861,45.915
15.3343,34.8102,46.015
15.3678,34.648,46.115
15.4011,34.2931,46.215
15.4347,34.0314,46.315
15.468,33.7555,46.415
15.5012,33.5976,46.515
15.5345,33.4226,46.615
15.5677,33.3149,46.715
15.6011,33.1614,46.815
15.6347,32.9949,46.915
15.668,32.8733,47.015
15.7013,32.8621,47.115
15.7346,32.914,47.215
15.7679,32.6099,47.315
15.8012,32.7665,47.415
15.8343,32.5316,47.515
15.8676,32.702,47.615
15.9012,32.5438,47.715
15.9348,32.6562,47.815
15.9681,32.8127,47.915
16.0011,32.7067,48.015
16.0344,32.6631,48.115
16.0679,32.66,48.215
16.101,32.4448,48.315
16.1345,32.3786,48.415
16.168,31.6979,48.515
16.2014,31.5405,48.615
16.2348,31.4775,48.715
16.2683,31.4028,48.815
16.3015,31.3717,48.915
16.3346,31.1947,49.015
16.3673,31.4436,49.115
16.4007,31.3194,49.215
16.4345,31.3065,49.315
16.468,31.1141,49.415
16.5014,30.9668,49.515
16.5347,30.946,49.615
16.5678,30.9053,49.715
16.601,30.9248,49.815
16.6344,30.9527,49.915
16.6677,30.8998,50.015
16.7012,30.7956,50.115
16.7347,30.5898,50.215
16.7681,30.6243,50.315
16.8014,30.6791,50.415
16.8346,30.5207,50.515
16.8678,30.524,50.615
16.9011,30.3965,50.715
16.9345,30.3255,50.815
16.9681,30.3776,50.915
17.0014,30.2265,51.015
17.0347,30.3216,51.115
17.068,30.0636,51.215
17.101,30.1374,51.315
17.1345,30.1941,51.415
17.1679,30.0966,51.515
17.2012,30.0753,51.615
17.2347,30.0625,51.715
17.2681,30.039,51.815
17.3013,29.9688,51.915
17.3346,29.7974,52.015
17.3679,29.8325,52.115
17.4013,29.8419,52.215
17.4346,29.6236,52.315
17.4681,29.4835,52.415
17.5016,29.4185,52.515
17.535,29.2911,52.615
17.5682,29.2271,52.715
17.6015,29.1082,52.815
17.6348,28.9146,52.915
17.6681,28.9094,53.015
17.7014,28.7633,53.115
17.7347,28.7184,53.215
17.768,28.5648,53.315
17.8015,28.7901,53.415
17.835,28.5171,53.515
17.8682,28.3655,53.615
17.9015,28.3625,53.715
17.9348,28.2435,53.815
17.9682,28.2722,53.915
18.0015,28.207,54.015
18.0349,28.226,54.115
18.0684,28.3407,54.215
18.1017,28.0536,54.315
18.135,28.1966,54.415
18.1683,28.124,54.515
18.2015,27.948,54.615
18.2346,28.0752,54.715
18.2679,27.9501,54.815
18.3014,27.8404,54.915
18.3352,27.788,55.015
18.3685,27.5452,55.115
18.4015,27.3675,55.215
18.4348,27.1619,55.315
18.4681,27.0309,55.415
18.5015,26.9142,55.515
18.5348,26.719,55.615
18.5682,26.3529,55.715
18.6017,26.0507,55.815
18.6351,25.7676,55.915
18.6686,25.8235,56.015
18.7019,25.7093,56.115
18.7348,25.4991,56.215
18.7677,25.3816,56.315
18.801,25.1961,56.415
18.8347,25.2585,56.515
18.8683,25.1255,56.615
18.9018,24.8207,56.715
18.935,24.6561,56.815
18.968,24.7882,56.915
19.0014,24.6453,57.015
19.0346,24.5696,57.115
19.0679,24.6042,57.215
19.1014,24.5698,57.315
19.135,24.554,57.415
19.1683,24.4036,57.515
19.2016,24.5435,57.615
19.2348,24.6694,57.715
19.268,24.3978,57.815
19.3013,24.3491,57.915
19.3347,24.1403,58.015
19.3682,24.0484,58.115
19.4016,24.0493,58.215
19.4348,23.864,58.315
19.4681,23.8919,58.415
19.5011,23.929,58.515
19.5346,23.8164,58.615
19.568,23.5659,58.715
19.6012,23.2157,58.815
19.6347,23.0573,58.915
19.668,23.0161,59.015
19.7012,22.8821,59.115
19.7345,22.5129,59.215
19.7679,22.5293,59.315
19.8012,22.1975,59.415
19.8344,21.939,59.515
19.8678,21.7174,59.615
19.9014,21.5225,59.715
19.9348,21.1674,59.815
19.968,21.1274,59.915
20.0012,20.9713,60.015
20.0345,20.9641,60.115
20.0678,20.8527,60.215
20.1011,20.8259,60.315
20.1344,20.6762,60.415
20.1677,20.6264,60.515
20.2012,20.3905,60.615
20.2347,20.5586,60.715
20.2679,20.4538,60.815
20.3012,20.4761,60.915
20.3345,20.0342,61.015
20.3677,19.6991,61.115
20.4011,19.6036,61.215
20.4346,19.3521,61.315
20.468,19.2649,61.415
20.5013,19.0806,61.515
20.5346,19.1052,61.615
20.5678,19.0654,61.715
20.6012,19.0126,61.815
20.6343,18.9391,61.915
20.6676,18.87,62.015
20.7011,18.813,62.115
20.7349,18.8623,62.215
20.768,18.8498,62.315
20.8011,18.8189,62.415
20.8345,18.8083,62.515
20.8679,18.7094,62.615
20.9012,18.7254,62.715
20.9345,18.636,62.815
20.9679,18.589,62.915
21.0015,18.3603,63.015
21.0349,18.3146,63.115
21.0684,18.385,63.215
21.1016,18.4691,63.315
21.1344,18.581,63.415
21.1674,18.2039,63.515
21.2009,17.8892,63.615
21.2345,18.1426,63.715
21.2681,17.9678,63.815
21.3015,18.1009,63.915
21.3347,17.9194,64.015
21.3679,17.9084,64.115
21.4012,17.672,64.215
21.4346,17.8454,64.315
21.4679,17.8278,64.415
21.5013,17.8329,64.515
21.5349,17.813,64.615
21.5682,17.6773,64.715
21.6015,17.7343,64.815
21.6347,17.7383,64.915
21.668,17.9927,65.015
21.7013,17.798,65.115
21.7347,17.8657,65.215
21.7681,17.8543,65.315
21.8015,17.8408,65.415
21.8348,18.1463,65.515
21.868,18.0655,65.615
21.9013,18.0914,65.715
21.9347,18.051,65.815
21.9681,18.2509,65.915
22.0014,18.2291,66.015
22.0348,18.1069,66.115
22.0682,18.2819,66.215
22.1014,18.1683,66.315
22.1347,18.3003,66.415
22.1682,18.3462,66.515
22.2015,18.3877,66.615
22.2348,18.4201,66.715
22.2682,18.4005,66.815
22.3016,18.5812,66.915
22.3351,18.5461,67.015
22.3683,18.6502,67.115
22.4015,18.7331,67.215
22.4349,18.7446,67.315
22.4682,18.6366,67.415
22.5014,18.9965,67.515
22.5347,18.8555,67.615
22.5679,18.8727,67.715
22.6016,19.1133,67.815
22.635,19.0569,67.915
22.6682,19.2415,68.015
22.7016,19.2528,68.115
22.7348,19.3739,68.215
22.7681,19.1661,68.315
22.8014,19.3855,68.415
22.8348,19.2024,68.515
22.8683,19.2686,68.615
22.9016,19.4251,68.715
22.9349,19.1443,68.815
22.9682,19.3617,68.915
23.0015,19.2605,69.015
23.0347,19.27,69.115
23.0679,19.365,69.215
23.1014,19.2992,69.315
23.1352,19.4224,69.415
23.1683,19.6245,69.515
23.2014,19.4419,69.615
23.2348,19.4253,69.715
23.2681,19.5315,69.815
23.3016,19.6502,69.915
23.3347,19.5775,70.015
23.3681,19.5596,70.115
23.4017,19.7231,70.215
23.4352,19.7009,70.315
23.4686,19.7689,70.415
23.5019,19.5896,70.515
23.5345,19.7668,70.615
23.5677,19.6569,70.715
23.6012,19.6795,70.815
23.6347,19.5605,70.915
23.6683,19.6467,71.015
23.7017,19.8538,71.115
23.7348,19.9459,71.215
23.7681,19.8855,71.315
23.8014,19.8582,71.415
23.8347,19.8493,71.515
23.8679,19.755,71.615
23.9013,19.6792,71.715
23.935,19.7281,71.815
23.9683,19.4043,71.915
24.0015,19.4948,72.015
24.0347,19.5338,72.115
24.068,19.3792,72.215
24.1013,19.414,72.315
24.1347,19.5171,72.415
24.168,19.5573,72.515
24.2015,19.4128,72.615
24.2346,19.4337,72.715
24.2679,19.5896,72.815
24.3012,19.3447,72.915
24.3345,19.1304,73.015
24.3679,19.3617,73.115
24.4011,19.4914,73.215
24.4344,19.2743,73.315
24.4679,19.6199,73.415
24.501,19.6315,73.515
24.5344,19.1576,73.615
24.5679,19.1443,73.715
24.6011,19.0914,73.815
24.6344,19.1803,73.915
24.6678,19.2035,74.015
24.7012,19.2631,74.115
24.7347,19.3552,74.215
24.7679,19.2682,74.315
24.8011,19.3419,74.415
24.8345,19.193,74.515
24.8678,19.2615,74.615
24.9011,19.4345,74.715
24.9343,19.2856,74.815
24.9675,19.1585,74.915
25.0013,19.2037,75.015
25.0346,19.42,75.115
25.0678,19.153,75.215
25.1013,19.1411,75.315
25.1344,19.232,75.415
25.1678,19.2077,75.515
25.2011,19.1624,75.615
25.2345,19.3441,75.715
25.2679,19.0564,75.815
25.3013,19.2036,75.915
25.3345,19.1041,76.015
25.3679,18.9667,76.115
25.4011,18.7767,76.215
25.4344,18.7199,76.315
25.4676,18.8566,76.415
25.5012,18.6438,76.515
25.5349,18.5582,76.615
25.5679,18.768,76.715
25.6011,18.7836,76.815
25.6346,18.7004,76.915
25.6679,18.7526,77.015
25.7013,18.7405,77.115
25.7346,18.7498,77.215
25.7679,18.8129,77.315
25.8015,18.6896,77.415
25.835,18.6584,77.515
25.8683,18.7844,77.615
25.9017,18.8084,77.715
25.9343,18.7331,77.815
25.9675,18.7105,77.915
26.0012,18.7805,78.015
26.0346,18.6171,78.115
26.0682,18.5362,78.215
26.1016,18.3462,78.315
26.1347,18.1649,78.415
26.168,18.0692,78.515
26.2013,17.8803,78.615
26.2346,17.7313,78.715
26.2679,17.4264,78.815
26.3013,17.4731,78.915
26.3349,17.136,79.015
26.3682,17.0204,79.115
26.4015,17.0749,79.215
26.4348,16.9584,79.315
26.4681,16.718,79.415
26.5014,16.631,79.515
26.5348,16.3561,79.615
26.5681,16.1824,79.715
26.6015,16.2107,79.815
26.6348,16.0066,79.915
26.668,15.9911,80.015
26.7014,15.8242,80.115
26.7348,15.7766,80.215
26.7681,15.6142,80.315
26.8014,15.5413,80.415
26.8346,15.5127,80.515
26.8681,15.4433,80.615
26.9013,15.3298,80.715
26.9347,15.5952,80.815
26.9682,14.7566,80.915
27.0014,14.5523,81.015
27.0348,14.3946,81.115
27.0682,13.852,81.215
27.1016,13.9108,81.315
27.1349,13.563,81.415
27.1681,13.4274,81.515
27.2015,12.9658,81.615
27.2349,12.7793,81.715
27.2682,12.3012,81.815
27.3015,11.9562,81.915
27.3347,11.7474,82.015
27.3679,11.7076,82.115
27.4015,11.6088,82.215
27.4349,11.5863,82.315
27.4683,11.437,82.415
27.5016,11.4555,82.515
27.5348,11.4296,82.615
27.5682,11.3932,82.715
27.6016,11.4139,82.815
27.6348,11.1211,82.915
27.6683,11.1967,83.015
27.7016,11.0997,83.115
27.735,11.0876,83.215
27.7682,10.9653,83.315
27.8015,10.8989,83.415
27.8347,10.8526,83.515
27.868,10.8071,83.615
27.9015,10.8031,83.715
27.9351,10.7152,83.815
27.9682,10.6272,83.915
28.0014,10.6537,84.015
28.0349,10.475,84.115
28.0681,10.3704,84.215
28.1016,10.3283,84.315
28.1349,10.5858,84.415
28.1681,10.3138,84.515
28.2016,10.3864,84.615
28.2352,10.5349,84.715
28.2686,10.3336,84.815
28.3018,10.2742,84.915
28.3344,10.358,85.015
28.3677,10.3277,85.115
28.4013,10.2673,85.215
28.4347,10.1222,85.315
28.4682,10.1421,85.415
28.5016,10.2687,85.515
28.5347,10.1685,85.615
28.568,10.3022,85.715
28.6014,10.1572,85.815
28.6347,10.2523,85.915
28.6679,10.203,86.015
28.7013,10.2175,86.115
28.7348,10.1453,86.215
28.7682,10.1555,86.315
28.8014,10.2289,86.415
28.8347,10.1594,86.515
28.868,10.0912,86.615
28.9013,10.0981,86.715
28.9348,10.0301,86.815
28.9679,10.0383,86.915
29.0013,10.1526,87.015
29.0346,7.46434,87.115
29.0677,6.95463,87.215
29.1011,6.80884,87.315
29.1345,6.46216,87.415
29.1678,6.62338,87.515
29.2011,6.39154,87.615
29.2343,6.26793,87.715
29.2677,6.46313,87.815
29.301,6.08208,87.915
29.3344,6.03321,88.015
29.3678,6.01676,88.115
29.4011,5.9971,88.215
29.4345,5.89744,88.315
29.4679,6.03498,88.415
29.5012,5.88116,88.515
29.5346,5.70209,88.615
29.5678,5.67471,88.715
29.6011,5.89656,88.815
29.6345,5.7997,88.915
29.6678,5.93751,89.015
29.7011,5.61444,89.115
29.7344,5.42424,89.215
29.7676,5.60446,89.315
29.8013,5.69988,89.415
29.8347,5.72332,89.515
29.8679,5.49767,89.615
29.9013,5.43956,89.715
29.9346,5.49927,89.815
29.968,5.25481,89.915
30.0013,5.43198,90.015
30.0346,5.27466,90.115
30.068,5.37444,90.215
30.1014,5.29026,90.315
30.1347,5.1823,90.415
30.1681,5.19586,90.515
30.2012,4.9856,90.615
30.2346,5.14849,90.715
30.2678,5.01094,90.815
30.3014,5.22535,90.915
30.3349,5.04225,91.015
30.368,5.04845,91.115
30.4013,5.01914,91.215
30.4348,5.01495,91.315
30.468,5.00778,91.415
30.5015,4.87072,91.515
30.5348,4.6958,91.615
30.5681,4.68617,91.715
30.6016,4.75122,91.815
30.6351,4.79499,91.915
30.6684,4.48221,92.015
30.7016,4.39155,92.115
30.7343,4.4234,92.215
30.7677,4.63967,92.315
30.8013,4.58154,92.415
30.8347,4.33943,92.515
30.8682,4.33506,92.615
30.9015,4.13378,92.715
30.9347,4.01854,92.815
30.968,4.05781,92.915
31.0013,4.41231,93.015
31.0346,4.17823,93.115
31.0679,4.07853,93.215
31.1013,4.07233,93.315
31.1348,4.10638,93.415
31.1681,4.0199,93.515
31.2014,4.09079,93.615
31.2347,4.10242,93.715
31.2681,4.07292,93.815
31.3014,3.92386,93.915
31.3349,3.84277,94.015
31.3681,4.03644,94.115
31.4014,3.87399,94.215
31.4348,3.92136,94.315
31.468,3.71557,94.415
31.5014,3.88014,94.515
31.5349,3.74824,94.615
31.5682,3.65796,94.715
31.6015,3.57281,94.815
31.6347,3.53315,94.915
31.6679,3.63688,95.015
31.7013,3.58623,95.115
31.7347,3.61392,95.215
31.7683,3.54062,95.315
31.8015,3.47577,95.415
31.8349,3.29905,95.515
31.8683,3.39675,95.615
31.9017,3.37612,95.715
31.9349,3.40437,95.815
31.9682,3.29584,95.915
32.0015,3.03948,96.015
32.035,3.31501,96.115
32.0683,3.3655,96.215
32.1016,3.49811,96.315
32.1348,3.27775,96.415
32.168,3.19841,96.515
32.2016,3.26537,96.615
32.235,3.20535,96.715
32.2683,3.01638,96.815
32.3016,3.37729,96.915
32.335,3.02158,97.015
32.3683,3.07043,97.115
32.4017,2.87867,97.215
32.4349,2.90683,97.315
32.4682,2.87896,97.415
32.5016,2.71069,97.515
32.535,2.86012,97.615
32.5683,2.74867,97.715
32.6014,2.64221,97.815
32.6347,2.76406,97.915
32.668,2.6351,98.015
32.7015,2.70987,98.115
32.7349,2.70964,98.215
32.768,2.63317,98.315
32.8013,2.56491,98.415
32.8348,2.6193,98.515
32.8681,2.49987,98.615
32.9014,2.39827,98.715
32.9348,2.4402,98.815
32.9681,2.36107,98.915
33.0015,2.22562,99.015
33.0351,2.41327,99.115
33.0685,2.27213,99.215
33.1015,2.33356,99.315
33.1343,2.25467,99.415
33.1677,2.43009,99.515
33.2013,2.3779,99.615
33.2346,2.43581,99.715
33.268,2.13162,99.815
33.3014,2.42665,99.915
33.3346,2.18021,100.015
33.3679,1.99257,100.115
33.4013,1.8849,100.215
33.4346,1.86678,100.315
33.4679,1.8159,100.415
33.5013,1.89454,100.515
33.5346,1.96517,100.615
33.5681,1.82817,100.715
33.6013,1.76677,100.815
33.6345,1.79268,100.915
33.6679,1.70413,101.015
33.7013,1.72706,101.115
33.7347,1.68758,101.215
33.7678,1.76198,101.315
33.8011,1.62958,101.415
33.8346,1.86659,101.515
33.8677,1.61209,101.615
33.9012,1.61727,101.715
33.9346,1.57159,101.815
33.9679,1.5104,101.915
34.0012,1.6039,102.015
34.0344,1.53305,102.115
34.0676,1.72562,102.215
34.101,1.50703,102.315
34.1344,1.44723,102.415
34.1678,1.39959,102.515
34.2012,1.43315,102.615
34.2345,1.45729,102.715
34.268,1.43286,102.815
34.3012,1.52417,102.915
34.3345,1.35005,103.015
34.3678,1.65937,103.115
34.4012,1.3957,103.215
34.4346,1.40583,103.315
34.468,1.47216,103.415
34.5012,1.38551,103.515
34.5344,1.4757,103.615
34.5677,1.44319,103.715
34.6012,1.44181,103.815
34.6346,1.46338,103.915
34.6679,1.36884,104.015
34.7012,1.3426,104.115
34.7347,1.35576,104.215
34.768,1.36276,104.315
34.8014,1.41506,104.415
34.8346,1.17298,104.515
34.8679,1.36882,104.615
34.9013,1.26885,104.715
34.9346,1.28035,104.815
34.968,1.3608,104.915
35.0012,1.19708,105.015
35.0345,1.37473,105.115
35.0679,1.37061,105.215
35.1015,1.34242,105.315
35.1347,1.24829,105.415
35.1678,1.45557,105.515
35.2012,1.15532,105.615
35.2347,1.29545,105.715
35.2681,1.33294,105.815
35.3014,1.01653,105.915
35.3347,1.27486,106.015
35.3681,1.18063,106.115
35.4015,1.16719,106.215
35.4351,1.18728,106.315
35.4684,1.18698,106.415
35.5012,1.09274,106.515
35.5343,1.19915,106.615
35.5678,1.23818,106.715
35.6014,1.20128,106.815
35.6348,1.25472,106.915
35.6682,1.20991,107.015
35.7014,1.18034,107.115
35.7347,1.27984,107.215