File: Data/Selected_data/SSP_2025-03-20_D9_OPER.csv
Crossheadmm,LoadN,Timesec
0.0368,0.814219,0.122
0.0703,0.98519,0.222
0.1038,1.03435,0.322
0.1369,1.3126,0.422
0.1701,1.53513,0.522
0.2036,1.31021,0.622
0.2369,1.63986,0.722
0.2705,1.46269,0.822
0.3038,1.5784,0.922
0.337,1.63777,1.022
0.3703,1.80856,1.122
0.4035,1.85121,1.222
0.4369,1.77671,1.322
0.4705,1.99346,1.422
0.5038,1.97985,1.522
0.5372,1.96382,1.622
0.5704,1.99174,1.722
0.6037,2.15718,1.822
0.637,2.30707,1.922
0.6702,2.57462,2.022
0.7035,2.59494,2.122
0.7368,2.79856,2.222
0.7703,2.89077,2.322
0.8039,2.95439,2.422
0.837,2.83902,2.522
0.8704,3.29659,2.622
0.9039,3.34739,2.722
0.9366,3.63174,2.822
0.9699,3.64914,2.922
1.0035,3.77257,3.022
1.0369,3.99809,3.122
1.0704,4.14696,3.222
1.1037,4.27694,3.322
1.1369,4.52318,3.422
1.1702,4.50568,3.522
1.2032,5.00314,3.622
1.2366,5.12967,3.722
1.2703,5.42906,3.822
1.3037,5.44813,3.922
1.337,5.87664,4.022
1.3703,6.12811,4.122
1.4036,6.4983,4.222
1.4369,6.57764,4.322
1.4701,6.91756,4.422
1.5035,7.27999,4.522
1.5369,7.6017,4.622
1.5703,8.07691,4.722
1.6038,8.27504,4.822
1.6371,8.67526,4.922
1.6702,8.92242,5.022
1.7035,9.5061,5.122
1.7368,9.88681,5.222
1.7701,10.2849,5.322
1.8038,10.7053,5.422
1.837,11.1956,5.522
1.8703,11.4217,5.622
1.9036,12.0642,5.722
1.9367,12.4931,5.822
1.97,13.185,5.922
2.0035,13.7241,6.022
2.0368,14.1178,6.122
2.0703,14.7199,6.222
2.1036,15.2219,6.322
2.1369,15.8311,6.422
2.1701,16.4126,6.522
2.2036,17.0184,6.622
2.237,17.6619,6.722
2.2701,18.1935,6.822
2.3035,19.0915,6.922
2.3371,19.808,7.022
2.3706,20.3194,7.122
2.4037,21.0388,7.222
2.4369,21.7736,7.322
2.4703,22.5951,7.422
2.5037,23.5576,7.522
2.5368,24.0516,7.622
2.5701,25.1321,7.722
2.6035,25.9106,7.822
2.6369,26.7708,7.922
2.6704,27.888,8.022
2.7037,28.7219,8.122
2.7369,29.6598,8.222
2.7702,30.3229,8.322
2.8035,31.3785,8.422
2.8368,32.2492,8.522
2.8703,33.1627,8.622
2.9038,34.0397,8.722
2.9371,35.3878,8.822
2.9704,36.2951,8.922
3.0037,37.203,9.022
3.0371,38.1612,9.122
3.0703,39.3133,9.222
3.1036,40.367,9.322
3.1369,41.2184,9.422
3.1707,42.493,9.522
3.2041,43.4546,9.622
3.2372,44.4493,9.722
3.2708,45.6241,9.822
3.3041,46.7551,9.922
3.3368,47.6299,10.022
3.3701,48.7621,10.122
3.4037,49.9456,10.222
3.4373,51.17,10.322
3.4708,52.2535,10.422
3.5041,53.5128,10.522
3.5372,54.3803,10.622
3.5705,55.7322,10.722
3.6036,56.7894,10.822
3.6369,57.8872,10.922
3.6705,58.9838,11.022
3.704,60.1576,11.122
3.7374,61.0726,11.222
3.7707,59.6137,11.322
3.8039,60.7818,11.422
3.8372,61.9212,11.522
3.8705,62.9615,11.622
3.9037,64.3129,11.722
3.9371,65.4373,11.822
3.9706,66.3924,11.922
4.0041,67.4881,12.022
4.0374,68.7228,12.122
4.0705,69.8749,12.222
4.1038,71.0374,12.322
4.1371,70.957,12.422
4.1704,72.2016,12.522
4.204,73.4833,12.622
4.2373,74.5812,12.722
4.2706,75.2969,12.822
4.3039,76.4134,12.922
4.3369,67.9955,13.022
4.3704,69.4145,13.122
4.4038,70.3929,13.222
4.437,71.7546,13.322
4.4704,73.2862,13.422
4.5038,74.7143,13.522
4.5371,75.9095,13.622
4.5703,75.8218,13.722
4.6038,76.4702,13.822
4.6372,77.4011,13.922
4.6702,78.5999,14.022
4.7035,79.5667,14.122
4.7371,80.7016,14.222
4.7706,82.1349,14.322
4.8038,83.1911,14.422
4.837,84.1135,14.522
4.8704,84.0309,14.622
4.9037,82.9564,14.722
4.9368,82.3627,14.822
4.9701,83.539,14.922
5.0034,84.3949,15.022
5.0369,82.7605,15.122
5.0704,83.0153,15.222
5.1037,83.697,15.322
5.1369,83.6669,15.422
5.1702,84.0044,15.522
5.2035,84.7713,15.622
5.2367,86.0136,15.722
5.2702,86.5133,15.822
5.3037,86.7494,15.922
5.337,86.7657,16.022
5.3702,87.772,16.122
5.4035,81.5477,16.222
5.4368,80.4067,16.322
5.4701,80.7512,16.422
5.5033,81.1432,16.522
5.5367,80.2662,16.622
5.5704,79.091,16.722
5.6038,79.0258,16.822
5.6369,79.8688,16.922
5.6705,81.2497,17.022
5.7038,81.7742,17.122
5.7365,82.5306,17.222
5.7698,83.1664,17.322
5.8034,60.5395,17.422
5.837,59.3792,17.522
5.8704,60.0766,17.622
5.9037,60.7862,17.722
5.9369,61.794,17.822
5.9701,62.8355,17.922
6.0033,64.3003,18.022
6.0367,65.6538,18.122
6.0702,67.2146,18.222
6.1037,68.4098,18.322
6.1371,69.3515,18.422
6.1703,69.8943,18.522
6.2036,70.2882,18.622
6.2369,70.4083,18.722
6.2701,71.1673,18.822
6.3034,70.5571,18.922
6.3367,71.7333,19.022
6.3703,72.669,19.122
6.4037,73.5102,19.222
6.437,73.5442,19.322
6.4701,74.305,19.422
6.5034,74.1732,19.522
6.5367,74.984,19.622
6.5701,75.8158,19.722
6.6036,76.3779,19.822
6.637,75.0368,19.922
6.6702,75.338,20.022
6.7035,75.6007,20.122
6.7366,75.0227,20.222
6.7701,73.9498,20.322
6.8034,74.2649,20.422
6.8367,73.9625,20.522
6.8702,73.4548,20.622
6.9035,74.3412,20.722
6.9368,76.6406,20.822
6.9701,78.3824,20.922
7.0036,80.3426,21.022
7.037,81.4362,21.122
7.07,82.987,21.222
7.1034,85.1352,21.322
7.137,87.2047,21.422
7.1705,88.967,21.522
7.2037,90.7286,21.622
7.2369,92.7092,21.722
7.2704,94.6276,21.822
7.3037,96.3859,21.922
7.3368,98.1556,22.022
7.3701,100.589,22.122
7.4034,102.489,22.222
7.437,104.484,22.322
7.4705,106.272,22.422
7.5037,108.56,22.522
7.5371,110.772,22.622
7.5704,111.955,22.722
7.6036,113.695,22.822
7.6369,115.739,22.922
7.6703,117.154,23.022
7.7039,118.102,23.122
7.7372,119.692,23.222
7.7705,121.924,23.322
7.8037,123.879,23.422
7.8371,125.753,23.522
7.8703,128.021,23.622
7.9035,129.983,23.722
7.9369,132.288,23.822
7.9707,134.579,23.922
8.0039,135.329,24.022
8.0372,137.066,24.122
8.0707,135.915,24.222
8.104,136.805,24.322
8.1368,136.107,24.422
8.1701,134.471,24.522
8.2036,136.521,24.622
8.2373,139.003,24.722
8.2707,140.958,24.822
8.304,142.771,24.922
8.3372,142.195,25.022
8.3703,142.98,25.122
8.4036,135.598,25.222
8.4369,135.82,25.322
8.4703,137.857,25.422
8.5039,140.054,25.522
8.5373,142.006,25.622
8.5706,144.156,25.722
8.6038,146.215,25.822
8.6371,147.904,25.922
8.6704,149.423,26.022
8.7036,136.513,26.122
8.737,138.406,26.222
8.7706,139.619,26.322
8.804,140.538,26.422
8.8372,142.683,26.522
8.8704,144.082,26.622
8.9037,144.182,26.722
8.937,146.102,26.822
8.9704,148.118,26.922
9.0037,145.518,27.022
9.0371,146.684,27.122
9.0704,149.016,27.222
9.1036,151.371,27.322
9.1369,152.82,27.422
9.1703,154.9,27.522
9.2036,156.549,27.622
9.2368,158.606,27.722
9.2702,159.141,27.822
9.3037,159.177,27.922
9.3369,156.218,28.022
9.3702,156.535,28.122
9.4038,155.984,28.222
9.437,157.164,28.322
9.47,159.203,28.422
9.5034,161.306,28.522
9.5369,162.835,28.622
9.5705,163.967,28.722
9.6036,164.414,28.822
9.6369,166.201,28.922
9.6703,167.675,29.022
9.7036,167.06,29.122
9.7367,168.989,29.222
9.77,170.095,29.322
9.8032,172.045,29.422
9.8369,170.186,29.522
9.8703,171.66,29.622
9.9036,172.722,29.722
9.9369,174.237,29.822
9.9702,162.939,29.922
10.0035,164.479,30.022
10.0367,165.716,30.122
10.0701,167.018,30.222
10.1037,168.176,30.322
10.137,167.156,30.422
10.1702,167.768,30.522
10.2036,168.451,30.622
10.2369,169.893,30.722
10.2701,170.64,30.822
10.3032,171.932,30.922
10.3367,173.363,31.022
10.3705,174.861,31.122
10.4037,175.033,31.222
10.4369,175.954,31.322
10.4705,176.111,31.422
10.5037,175.799,31.522
10.5366,176.656,31.622
10.5698,177.789,31.722
10.6034,179.203,31.822
10.637,180.473,31.922
10.6703,180.828,32.022
10.7036,181.892,32.122
10.7369,183.159,32.222
10.77,183.447,32.322
10.8033,182.777,32.422
10.8367,182.376,32.522
10.8701,168.732,32.622
10.9036,166.558,32.722
10.937,166.068,32.822
10.9702,167.141,32.922
11.0035,168.155,33.022
11.0367,169.522,33.122
11.07,170.765,33.222
11.1032,171.351,33.322
11.1365,172.525,33.422
11.1702,166.726,33.522
11.2036,166.549,33.622
11.2369,166.962,33.722
11.2701,165.462,33.822
11.3034,162.424,33.922
11.3367,162.669,34.022
11.3702,163.074,34.122
11.4035,161.638,34.222
11.4369,162.025,34.322
11.4702,162.509,34.422
11.5034,162.841,34.522
11.5367,162.523,34.622
11.5702,163.181,34.722
11.6035,163.829,34.822
11.6368,163.338,34.922
11.6702,163.01,35.022
11.7036,162.728,35.122
11.7368,162.524,35.222
11.7703,162.548,35.322
11.8039,161.021,35.422
11.837,154.933,35.522
11.8701,153.517,35.622
11.9036,152.735,35.722
11.9371,153.185,35.822
11.9705,152.503,35.922
12.0037,152.582,36.022
12.0371,152.171,36.122
12.0705,151.347,36.222
12.1037,151.274,36.322
12.1369,151.068,36.422
12.1702,150.358,36.522
12.2035,149.712,36.622
12.2371,149.547,36.722
12.2705,148.968,36.822
12.3038,147.884,36.922
12.3372,147.626,37.022
12.3704,147.654,37.122
12.4036,147.047,37.222
12.437,147.018,37.322
12.4704,147.21,37.422
12.5038,146.538,37.522
12.5372,146.061,37.622
12.5705,145.789,37.722
12.6038,145.076,37.822
12.6371,144.16,37.922
12.6704,144.052,38.022
12.7035,143.621,38.122
12.737,143.322,38.222
12.7706,143.051,38.322
12.8038,142.665,38.422
12.8372,143.149,38.522
12.8708,142.36,38.622
12.9038,142.294,38.722
12.9369,141.119,38.822
12.9702,122.029,38.922
13.0036,121.291,39.022
13.0373,119.719,39.122
13.0707,119.419,39.222
13.1039,119.452,39.322
13.1373,119.72,39.422
13.1703,116.567,39.522
13.2036,116.246,39.622
13.237,116.206,39.722
13.2704,115.984,39.822
13.3039,115.915,39.922
13.3373,116.576,40.022
13.3705,116.717,40.122
13.4038,117.333,40.222
13.4371,117.683,40.322
13.4704,115.209,40.422
13.5037,114.833,40.522
13.537,115.026,40.622
13.5705,114.981,40.722
13.6039,115.2,40.822
13.6372,115.013,40.922
13.6704,114.887,41.022
13.7037,114.699,41.122
13.737,113.277,41.222
13.7704,111.38,41.322
13.8036,105.48,41.422
13.837,104.046,41.522
13.8704,103.087,41.622
13.9036,102.345,41.722
13.937,101.2,41.822
13.9703,97.8483,41.922
14.0037,96.6935,42.022
14.0369,95.9576,42.122
14.0702,94.8048,42.222
14.1035,94.3943,42.322
14.1368,94.1069,42.422
14.1703,93.3907,42.522
14.2038,93.0362,42.622
14.2369,92.8422,42.722
14.2701,91.2143,42.822
14.3035,90.0477,42.922
14.337,89.7333,43.022
14.3703,89.6134,43.122
14.4036,89.3099,43.222
14.437,89.0905,43.322
14.4704,88.7394,43.422
14.5036,88.4359,43.522
14.5368,88.0063,43.622
14.57,87.7464,43.722
14.6032,87.7824,43.822
14.6369,87.7465,43.922
14.6703,87.5481,44.022
14.7036,87.2238,44.122
14.737,87.1449,44.222
14.7702,86.872,44.322
14.8035,86.6018,44.422
14.8368,86.532,44.522
14.8701,86.3419,44.622
14.9036,86.2276,44.722
14.9369,86.0499,44.822
14.9703,86.1655,44.922
15.0036,85.8839,45.022
15.0369,85.4387,45.122
15.0701,85.2361,45.222
15.1032,84.8706,45.322
15.1367,84.6111,45.422
15.1703,84.4456,45.522
15.2036,84.0473,45.622
15.237,83.5539,45.722
15.2705,83.2766,45.822
15.3034,83.3872,45.922
15.3366,82.9924,46.022
15.3699,82.7413,46.122
15.4034,82.2188,46.222
15.437,82.3563,46.322
15.4704,81.5381,46.422
15.5036,81.0288,46.522
15.537,80.5034,46.622
15.57,80.0347,46.722
15.6033,79.645,46.822
15.6368,79.2872,46.922
15.6701,77.613,47.022
15.7036,72.8641,47.122
15.737,72.0169,47.222
15.7703,71.8535,47.322
15.8036,72.016,47.422
15.8369,72.1084,47.522
15.8702,72.3042,47.622
15.9034,72.2705,47.722
15.9368,72.8326,47.822
15.9703,72.9635,47.922
16.0038,73.1514,48.022
16.037,73.393,48.122
16.0702,73.7075,48.222
16.1036,73.1074,48.322
16.1369,72.9314,48.422
16.1704,72.9466,48.522
16.2035,73.0754,48.622
16.2369,72.9133,48.722
16.2703,72.8052,48.822
16.3035,72.4805,48.922
16.3369,72.2655,49.022
16.3704,72.4013,49.122
16.4037,72.2749,49.222
16.437,72.3147,49.322
16.4702,72.0339,49.422
16.5036,72.1565,49.522
16.5369,72.2418,49.622
16.5705,72.2654,49.722
16.6039,72.3367,49.822
16.6371,72.4363,49.922
16.6703,72.3142,50.022
16.7038,72.1746,50.122
16.7372,72.2918,50.222
16.7705,72.082,50.322
16.8038,71.8662,50.422
16.8372,71.7663,50.522
16.8706,71.9689,50.622
16.9037,71.8186,50.722
16.937,72.0387,50.822
16.9702,71.9509,50.922
17.0035,72.1097,51.022
17.0371,72.3181,51.122
17.0705,72.4374,51.222
17.1039,72.5949,51.322
17.1372,72.3745,51.422
17.1705,72.3191,51.522
17.2038,72.2989,51.622
17.2371,72.3053,51.722
17.2704,72.4052,51.822
17.3038,72.4655,51.922
17.3372,72.6629,52.022
17.3705,72.7143,52.122
17.4039,72.8696,52.222
17.4372,73.0652,52.322
17.4705,73.004,52.422
17.5037,73.2646,52.522
17.5371,73.3062,52.622
17.5706,73.585,52.722
17.6038,73.4823,52.822
17.6374,73.6653,52.922
17.6708,73.6903,53.022
17.7036,73.8258,53.122
17.7369,73.907,53.222
17.7704,73.8011,53.322
17.8036,73.703,53.422
17.8372,73.6614,53.522
17.8707,73.8376,53.622
17.9039,73.9833,53.722
17.9372,73.9333,53.822
17.9704,74.2071,53.922
18.0037,73.9208,54.022
18.0372,74.213,54.122
18.0704,74.1708,54.222
18.1039,74.2632,54.322
18.1373,74.2929,54.422
18.1706,74.3991,54.522
18.2039,74.4127,54.622
18.2373,74.4841,54.722
18.2705,74.6021,54.822
18.3038,74.8344,54.922
18.3371,74.7908,55.022
18.3705,74.811,55.122
18.404,74.9352,55.222
18.4372,74.9145,55.322
18.4704,74.9978,55.422
18.5038,75.0903,55.522
18.5371,74.7885,55.622
18.5706,74.8616,55.722
18.6037,75.035,55.822
18.6369,74.8759,55.922
18.6704,74.7447,56.022
18.7036,74.7603,56.122
18.737,74.7079,56.222
18.7704,74.7102,56.322
18.8036,74.7626,56.422
18.8369,74.5318,56.522
18.8701,74.5349,56.622
18.9033,74.5931,56.722
18.9368,74.531,56.822
18.9703,74.6261,56.922
19.0038,74.4259,57.022
19.0368,74.2635,57.122
19.0701,73.9336,57.222
19.1035,73.76,57.322
19.1369,73.5979,57.422
19.1701,73.4924,57.522
19.2035,73.48,57.622
19.2369,72.9069,57.722
19.2702,72.6256,57.822
19.3034,72.4333,57.922
19.3367,71.9959,58.022
19.3699,71.4282,58.122
19.4032,70.8143,58.222
19.4367,70.2454,58.322
19.4701,69.5883,58.422
19.5035,68.9254,58.522
19.5368,68.439,58.622
19.5702,67.9544,58.722
19.6034,67.3813,58.822
19.6368,67.0237,58.922
19.6701,66.8591,59.022
19.7034,66.5215,59.122
19.7368,65.9972,59.222
19.7702,65.7382,59.322
19.8036,65.5388,59.422
19.8368,65.172,59.522
19.8701,65.0438,59.622
19.9033,64.809,59.722
19.9369,64.6049,59.822
19.9703,64.5639,59.922
20.0035,64.4099,60.022
20.0371,64.4042,60.122
20.0705,63.9471,60.222
20.1033,63.7108,60.322
20.1367,63.4841,60.422
20.1702,63.4756,60.522
20.2036,63.1118,60.622
20.2369,62.8854,60.722
20.2704,62.4868,60.822
20.3037,62.1208,60.922
20.337,61.4776,61.022
20.3702,60.9792,61.122
20.4035,60.655,61.222
20.437,60.2762,61.322
20.4703,59.9547,61.422
20.5036,59.7597,61.522
20.5371,59.1033,61.622
20.5703,58.6266,61.722
20.6037,58.2439,61.822
20.637,58.0975,61.922
20.6703,57.9517,62.022
20.7035,57.6818,62.122
20.7369,57.5233,62.222
20.7703,57.1843,62.322
20.8038,56.9191,62.422
20.8371,56.7081,62.522
20.8703,56.5928,62.622
20.9037,56.6132,62.722
20.9371,56.3159,62.822
20.9705,56.5566,62.922
21.0037,55.939,63.022
21.0369,55.9032,63.122
21.0703,55.9943,63.222
21.1035,55.7853,63.322
21.137,55.4709,63.422
21.1705,55.1892,63.522
21.2037,55.0514,63.622
21.2371,54.7257,63.722
21.2703,54.3465,63.822
21.3036,54.2555,63.922
21.3369,53.6402,64.022
21.3705,53.8731,64.122
21.404,53.6251,64.222
21.4371,53.5004,64.322
21.4704,53.5007,64.422
21.5039,53.5655,64.522
21.5372,53.4989,64.622
21.5704,53.3952,64.722
21.6037,53.2174,64.822
21.6372,53.1058,64.922
21.6706,53.1423,65.022
21.7037,52.8782,65.122
21.7371,52.54,65.222
21.7703,52.3091,65.322
21.8037,52.2104,65.422
21.8371,51.9484,65.522
21.8704,51.6074,65.622
21.9038,51.7142,65.722
21.9372,51.2541,65.822
21.9705,50.6745,65.922
22.0039,50.605,66.022
22.0372,49.9447,66.122
22.0705,49.6381,66.222
22.1037,49.2658,66.322
22.1371,48.8889,66.422
22.1705,48.631,66.522
22.204,48.1608,66.622
22.2372,47.9389,66.722
22.2705,47.5439,66.822
22.3038,47.1774,66.922
22.3373,46.8457,67.022
22.3706,46.3759,67.122
22.4038,46.1814,67.222
22.4375,45.7537,67.322
22.4709,46.1271,67.422
22.5036,45.6665,67.522
22.5369,45.5588,67.622
22.5705,45.2828,67.722
22.6039,45.0453,67.822
22.6372,44.9897,67.922
22.6706,44.8983,68.022
22.7039,44.4768,68.122
22.7371,44.3615,68.222
22.7704,44.3466,68.322
22.8038,44.2091,68.422
22.8372,44.275,68.522
22.8705,44.1603,68.622
22.9039,44.2109,68.722
22.9372,44.0252,68.822
22.9706,43.9778,68.922
23.0039,43.9672,69.022
23.0372,43.5952,69.122
23.0704,43.254,69.222
23.1038,42.9642,69.322
23.1371,42.7391,69.422
23.1704,42.4064,69.522
23.2038,42.0652,69.622
23.2371,41.6656,69.722
23.2704,41.4315,69.822
23.3037,40.6921,69.922
23.3371,40.4658,70.022
23.3705,40.05,70.122
23.4036,39.6085,70.222
23.4368,39.377,70.322
23.4702,38.9613,70.422
23.5035,38.396,70.522
23.5369,37.5767,70.622
23.5703,37.5197,70.722
23.6036,36.8193,70.822
23.6369,36.68,70.922
23.6701,36.5669,71.022
23.7033,36.0918,71.122
23.7366,36.0483,71.222
23.7703,35.7677,71.322
23.8036,35.9128,71.422
23.8367,35.5854,71.522
23.8701,35.291,71.622
23.9036,35.129,71.722
23.9369,35.0687,71.822
23.9701,35.0919,71.922
24.0034,34.7133,72.022
24.0369,34.764,72.122
24.0703,34.6052,72.222
24.1034,34.6375,72.322
24.1367,34.7427,72.422
24.17,34.5249,72.522
24.2034,34.3575,72.622
24.2368,34.2086,72.722
24.2701,34.4063,72.822
24.3036,34.0007,72.922
24.3369,33.8113,73.022
24.3703,33.8329,73.122
24.4035,33.7135,73.222
24.4369,33.466,73.322
24.4702,33.3156,73.422
24.5035,33.1536,73.522
24.5368,33.0841,73.622
24.5703,32.8293,73.722
24.6037,32.7679,73.822
24.6369,32.6821,73.922
24.6701,32.3772,74.022
24.7035,32.4423,74.122
24.737,32.1624,74.222
24.7702,31.9091,74.322
24.8034,31.9861,74.422
24.8372,31.9713,74.522
24.8705,31.971,74.622
24.9034,31.7604,74.722
24.9367,31.6114,74.822
24.9702,31.3389,74.922
25.0037,31.2807,75.022
25.037,30.6648,75.122
25.0703,30.5651,75.222
25.1037,30.3989,75.322
25.1369,30.2843,75.422
25.1702,30.2667,75.522
25.2036,30.1141,75.622
25.237,30.1358,75.722
25.2703,29.7922,75.822
25.3037,29.5254,75.922
25.337,29.4594,76.022
25.3704,29.5766,76.122
25.4037,29.2548,76.222
25.4371,29.1199,76.322
25.4704,29.0126,76.422
25.5037,28.6341,76.522
25.5371,28.4327,76.622
25.5704,28.2395,76.722
25.6037,27.8918,76.822
25.637,27.6901,76.922
25.6704,27.6049,77.022
25.7038,27.3039,77.122
25.7372,26.8686,77.222
25.7705,26.6328,77.322
25.8037,26.3725,77.422
25.8369,25.9442,77.522
25.8702,25.7571,77.622
25.9036,25.38,77.722
25.9371,25.4198,77.822
25.9705,25.2301,77.922
26.0039,24.8515,78.022
26.0372,24.7433,78.122
26.0704,24.6659,78.222
26.1035,24.7414,78.322
26.1369,24.7047,78.422
26.1707,24.4615,78.522
26.2039,24.6324,78.622
26.2371,24.6423,78.722
26.2705,24.1904,78.822
26.304,24.4474,78.922
26.3373,24.2664,79.022
26.3704,24.2339,79.122
26.4037,24.1071,79.222
26.4373,23.96,79.322
26.4706,23.924,79.422
26.5038,23.7767,79.522
26.5371,23.8396,79.622
26.5704,23.8972,79.722
26.6038,23.7666,79.822
26.6371,23.9003,79.922
26.6704,23.7559,80.022
26.7039,23.8045,80.122
26.7373,23.775,80.222
26.7706,23.6884,80.322
26.804,23.7089,80.422
26.8373,23.4097,80.522
26.8707,23.2831,80.622
26.9038,23.1867,80.722
26.9371,23.1675,80.822
26.9705,22.8324,80.922
27.004,22.8878,81.022
27.0372,22.8754,81.122
27.0705,23.1482,81.222
27.1038,22.9309,81.322
27.1374,22.9461,81.422
27.1705,22.9141,81.522
27.2038,22.8253,81.622
27.2375,22.8804,81.722
27.2708,22.8392,81.822
27.3037,22.8021,81.922
27.337,22.8246,82.022
27.3705,22.7272,82.122
27.404,22.7551,82.222
27.4372,22.6349,82.322
27.4704,22.4112,82.422
27.5039,22.2515,82.522
27.537,22.0455,82.622
27.5703,22.1403,82.722
27.6038,21.8218,82.822
27.6372,21.7417,82.922
27.6705,21.266,83.022
27.7037,20.2849,83.122
27.737,18.0335,83.222
27.7704,17.464,83.322
27.8037,17.1076,83.422
27.8371,16.5978,83.522
27.8704,16.367,83.622
27.9037,16.1001,83.722
27.9371,15.8039,83.822
27.9704,15.6118,83.922
28.0035,15.3374,84.022
28.037,15.1852,84.122
28.0703,14.7042,84.222
28.1037,14.5179,84.322
28.1372,14.2728,84.422
28.1704,13.5977,84.522
28.2036,13.3802,84.622
28.2368,13.4746,84.722
28.27,13.328,84.822
28.3035,12.8866,84.922
28.3369,13.045,85.022
28.3703,13.2538,85.122
28.4037,12.9439,85.222
28.4369,13.2234,85.322
28.4702,13.0079,85.422
28.5032,12.9247,85.522
28.5367,12.8883,85.622
28.5704,12.9864,85.722
28.6036,12.7329,85.822
28.6367,12.7058,85.922
28.6703,12.7918,86.022
28.7037,12.8007,86.122
28.737,12.6796,86.222
28.7701,12.6221,86.322
28.8034,12.5298,86.422
28.8369,12.5805,86.522
28.8703,12.521,86.622
28.9035,12.3226,86.722
28.9368,12.1154,86.822
28.97,12.0059,86.922
29.0036,12.1835,87.022
29.0368,12.1461,87.122
29.0701,12.1314,87.222
29.1036,11.9726,87.322
29.1369,11.9508,87.422
29.1703,11.9521,87.522
29.2037,11.7957,87.622
29.237,11.9647,87.722
29.2703,11.946,87.822
29.3035,12.0346,87.922
29.3369,11.9048,88.022
29.3703,11.7583,88.122
29.4037,11.5374,88.222
29.437,11.2583,88.322
29.4702,11.225,88.422
29.5036,11.3574,88.522
29.5371,11.3947,88.622
29.5703,11.216,88.722
29.6036,10.9699,88.822
29.6373,11.0526,88.922
29.6705,10.978,89.022
29.7036,10.8928,89.122
29.7369,10.9544,89.222
29.7703,10.8795,89.322
29.8038,10.956,89.422
29.8371,10.9132,89.522
29.8703,10.9718,89.622
29.9038,10.8272,89.722
29.9369,10.6998,89.822
29.9703,10.8027,89.922
30.0039,10.691,90.022
30.0371,10.7618,90.122
30.0705,10.4779,90.222
30.1038,10.5569,90.322
30.1371,10.4736,90.422
30.1704,10.3657,90.522
30.2038,10.2044,90.622
30.2372,10.2563,90.722
30.2705,10.1771,90.822
30.3038,10.1365,90.922
30.3373,10.0055,91.022
30.3705,9.87341,91.122
30.4037,9.91115,91.222
30.437,9.70131,91.322
30.4705,9.74114,91.422
30.5039,9.64011,91.522
30.5374,9.57466,91.622
30.5706,9.49776,91.722
30.6039,9.6201,91.822
30.6371,9.47096,91.922
30.6702,9.52817,92.022
30.7037,9.42265,92.122
30.7373,9.3839,92.222
30.7706,9.40343,92.322
30.804,9.41448,92.422
30.8372,9.47983,92.522
30.8705,9.48583,92.622
30.9036,9.51091,92.722
30.9371,9.41864,92.822
30.9707,9.47974,92.922
31.0039,9.37065,93.022
31.0372,9.34808,93.122
31.0706,9.11308,93.222
31.1041,9.08102,93.322
31.1373,9.15697,93.422
31.1705,8.95614,93.522
31.2037,9.09492,93.622
31.2372,9.20177,93.722
31.2706,9.11062,93.822
31.3039,9.04986,93.922
31.3371,8.98982,94.022
31.3704,8.97097,94.122
31.4039,8.95787,94.222
31.4372,9.16863,94.322
31.4703,9.00787,94.422
31.5038,8.97979,94.522
31.5372,8.94046,94.622
31.5706,8.87859,94.722
31.6039,8.79243,94.822
31.6373,8.72407,94.922
31.6706,8.84741,95.022
31.7038,8.8068,95.122
31.7371,8.69389,95.222
31.7704,8.79568,95.322
31.8039,8.76693,95.422
31.8372,8.62531,95.522
31.8704,8.72494,95.622
31.9038,8.88642,95.722
31.9374,8.65003,95.822
31.9704,8.61274,95.922
32.0037,8.71676,96.022
32.0374,8.39247,96.122
32.0704,8.33517,96.222
32.1036,8.3002,96.322
32.1371,8.46135,96.422
32.1704,8.24518,96.522
32.2039,8.32633,96.622
32.2371,8.55864,96.722
32.2703,8.35285,96.822
32.3037,8.28225,96.922
32.3369,8.4354,97.022
32.3703,8.51594,97.122
32.4038,8.49745,97.222
32.4371,8.49607,97.322
32.4705,8.47017,97.422
32.5037,8.58224,97.522
32.5369,8.50412,97.622
32.5703,8.46054,97.722
32.6037,8.44761,97.822
32.6371,8.55438,97.922
32.6703,8.46895,98.022
32.7037,8.4208,98.122
32.7372,8.56105,98.222
32.7704,8.60202,98.322
32.8035,8.52295,98.422
32.8368,8.64104,98.522
32.8703,8.74437,98.622
32.9037,8.78409,98.722
32.9372,8.74989,98.822
32.9704,8.82747,98.922
33.0037,8.76525,99.022
33.0368,8.91776,99.122
33.0699,9.05542,99.222
33.1033,8.9752,99.322
33.137,8.94092,99.422
33.1703,8.80202,99.522
33.2036,8.80584,99.622
33.2368,8.95735,99.722
33.2701,8.81749,99.822
33.3032,8.77479,99.922
33.3367,8.78814,100.022
33.3703,8.78316,100.122
33.4035,8.61191,100.222
33.4368,8.86148,100.322
33.4703,8.9456,100.422
33.5037,8.90301,100.522
33.537,8.92778,100.622
33.5701,8.90714,100.722
33.6034,8.93194,100.822
33.6369,9.11203,100.922
33.6702,8.54357,101.022
33.7035,8.64795,101.122
33.7368,8.57219,101.222
33.7701,8.38425,101.322
33.8036,8.38182,101.422
33.8368,8.39681,101.522
33.8701,8.47484,101.622
33.9035,8.40335,101.722
33.9369,8.4313,101.822
33.9703,8.31289,101.922
34.0037,8.44129,102.022
34.037,8.60155,102.122
34.0703,8.41693,102.222
34.1036,8.56948,102.322
34.1369,8.51246,102.422
34.1703,8.5334,102.522
34.2036,8.70105,102.622
34.237,8.64864,102.722
34.2703,8.34128,102.822
34.3038,8.63345,102.922
34.3372,8.6937,103.022
34.3703,8.6268,103.122
34.4038,8.36833,103.222
34.4373,8.47159,103.322
34.4701,8.46974,103.422
34.5036,8.40229,103.522
34.5371,8.63362,103.622
34.5705,8.32164,103.722
34.6039,8.3768,103.822
34.6372,8.42842,103.922
34.6703,8.53697,104.022
34.7037,8.54552,104.122
34.737,8.6672,104.222
34.7705,8.44928,104.322
34.8039,8.31904,104.422
34.8373,8.48583,104.522
34.8706,8.41553,104.622
34.9039,8.46552,104.722
34.9371,8.41855,104.822
34.9704,8.35051,104.922
35.0039,8.46947,105.022
35.0372,8.51012,105.122
35.0706,8.40863,105.222
35.104,8.33076,105.322
35.1374,8.43924,105.422
35.1706,8.46549,105.522
35.2038,8.19312,105.622
35.237,8.11025,105.722
35.2705,8.05065,105.822
35.3039,8.1685,105.922
35.3374,7.98503,106.022
35.3706,7.98402,106.122
35.4039,7.89561,106.222
35.4371,7.92203,106.322
35.4702,7.87205,106.422
35.5036,7.83178,106.522
35.5373,7.97569,106.622
35.5706,7.82436,106.722
35.604,7.94598,106.822
35.6372,7.89474,106.922
35.6704,7.91553,107.022
35.7036,7.7451,107.122
35.737,7.7418,107.222
35.7705,7.85984,107.322
35.8038,7.75907,107.422
35.8371,7.84942,107.522
35.8707,7.84993,107.622
35.904,7.86727,107.722
35.9372,7.80408,107.822
35.9705,7.8625,107.922
36.0037,7.8835,108.022
36.0371,7.86694,108.122
36.0704,7.81197,108.222
36.1037,7.87825,108.322
36.1371,7.72292,108.422
36.1704,7.85397,108.522
36.2039,7.75331,108.622
36.2371,7.72313,108.722
36.2703,7.81262,108.822
36.3036,7.79142,108.922
36.3371,7.67438,109.022
36.3705,7.70096,109.122
36.4039,7.79026,109.222
36.4372,7.92674,109.322
36.4705,7.84982,109.422
36.5037,7.68817,109.522
36.5369,7.64962,109.622
36.5703,7.80897,109.722
36.6037,7.80318,109.822
36.6371,7.79736,109.922
36.6704,7.71662,110.022
36.7039,7.81086,110.122
36.7373,7.80588,110.222
36.7704,7.71648,110.322
36.8038,7.70434,110.422
36.8373,7.6657,110.522
36.8702,7.66326,110.622
36.9035,7.7001,110.722
36.9371,7.6771,110.822
36.9705,7.81421,110.922
37.0039,7.84279,111.022
37.0371,7.74106,111.122
37.0703,7.97744,111.222
37.1035,7.85525,111.322
37.1369,7.89676,111.422
37.1703,7.95945,111.522
37.2038,7.99745,111.622
37.2371,7.96803,111.722
37.2705,7.98533,111.822
37.3037,7.92732,111.922
37.3369,7.85576,112.022
37.3702,8.02865,112.122
37.4036,8.05877,112.222
37.4369,8.00457,112.322
37.4703,8.1382,112.422
37.5037,8.15635,112.522
37.537,8.04288,112.622
37.5703,8.14708,112.722
37.6035,8.19113,112.822
37.6367,8.21795,112.922
37.6702,8.19395,113.022
37.7037,8.24954,113.122
37.737,8.21232,113.222
37.7703,8.2289,113.322
37.8035,8.36342,113.422
37.8368,8.30875,113.522
37.8698,8.2459,113.622
37.9033,8.36747,113.722
37.9369,8.25846,113.822
37.9702,8.52758,113.922
38.0036,8.43511,114.022
38.0368,8.24868,114.122
38.07,8.38798,114.222
38.1033,8.31897,114.322
38.1367,8.37093,114.422
38.1701,8.39538,114.522
38.2033,8.33463,114.622
38.2369,8.15579,114.722
38.2704,8.4526,114.822
38.3038,8.15562,114.922
38.3369,8.26762,115.022
38.3701,8.27973,115.122
38.4035,8.38694,115.222
38.4368,8.27399,115.322
38.4702,8.40861,115.422
38.5035,8.30796,115.522
38.5368,8.33018,115.622
38.5702,8.40855,115.722
38.6037,8.43297,115.822
38.6369,8.21465,115.922
38.6702,7.96944,116.022
38.7035,7.80789,116.122
38.737,8.04472,116.222
38.7703,8.05987,116.322
38.8037,7.81181,116.422
38.8371,7.90357,116.522
38.8704,7.9144,116.622
38.9037,7.91688,116.722
38.937,7.78093,116.822
38.9703,7.89928,116.922
39.0037,7.796,117.022
39.0371,7.96614,117.122
39.0705,7.89219,117.222
39.1041,7.938,117.322
39.1373,7.83487,117.422
39.1705,7.97602,117.522
39.204,7.90382,117.622
39.2373,7.8872,117.722
39.2703,7.9248,117.822
39.3037,7.87919,117.922
39.3372,7.85459,118.022
39.3707,7.76689,118.122
39.4041,7.7738,118.222
39.4373,7.59278,118.322
39.4705,7.56631,118.422
39.5037,7.58546,118.522
39.537,7.62,118.622
39.5706,7.51141,118.722
39.604,7.38376,118.822
39.6374,7.28708,118.922
39.6707,7.2502,119.022
39.704,7.12584,119.122
39.7372,6.98085,119.222
39.7705,6.83096,119.322
39.8038,6.67022,119.422
39.8372,6.61916,119.522
39.8706,6.50025,119.622
39.9041,6.44205,119.722
39.9374,6.2592,119.822
39.9706,6.20894,119.922
40.0038,5.75074,120.022
40.0371,5.01682,120.122
40.0705,4.66693,120.222
40.1041,4.50213,120.322
40.1375,4.38456,120.422
40.1707,4.18783,120.522
40.2039,4.18997,120.622
40.2371,4.19079,120.722
40.2703,4.00267,120.822
40.3036,3.85702,120.922
40.3371,3.77986,121.022
40.3705,3.72927,121.122
40.404,3.71762,121.222
40.4372,3.64748,121.322
40.4703,3.64947,121.422
40.5036,3.72755,121.522
40.5372,3.48546,121.622
40.5704,3.53103,121.722
40.6036,3.41491,121.822
40.6371,3.42986,121.922
40.6707,3.41237,122.022
40.704,3.40498,122.122
40.7372,3.4316,122.222
40.7703,3.27301,122.322
40.8037,3.55716,122.422
40.837,3.36831,122.522
40.8702,3.38685,122.622
40.9037,3.45271,122.722
40.9369,3.56956,122.822
40.9704,3.51863,122.922
41.0038,3.45004,123.022
41.0371,3.42069,123.122
41.0703,3.43716,123.222
41.1035,3.48406,123.322
41.1369,3.47112,123.422
41.1704,3.53529,123.522
41.2038,3.56817,123.622
41.2372,3.64963,123.722
41.2704,3.48133,123.822
41.3037,3.70689,123.922
41.3369,3.5408,124.022
41.3703,3.59963,124.122
41.4035,3.60904,124.222
41.4369,3.71142,124.322
41.4703,3.53551,124.422
41.504,3.73111,124.522
41.5371,3.32249,124.622
41.5703,3.4766,124.722
41.6038,3.398,124.822
41.6371,3.42916,124.922
41.67,3.5797,125.022
41.7034,3.4699,125.122
41.737,3.63326,125.222
41.7705,3.47612,125.322
41.8038,3.36988,125.422
41.837,3.48247,125.522
41.8702,3.5212,125.622
41.9033,3.55785,125.722
41.9367,3.48537,125.822
41.9702,3.56643,125.922
42.0036,3.40727,126.022
42.0371,3.45611,126.122
42.0704,3.58014,126.222
42.1036,3.44962,126.322
42.1368,3.51112,126.422
42.1701,3.40246,126.522
42.2035,3.52756,126.622
42.2369,3.5474,126.722
42.2703,3.42903,126.822
42.3037,3.52243,126.922
42.337,3.31497,127.022
42.3702,3.4467,127.122
42.4033,3.35282,127.222
42.4366,3.19651,127.322
42.4701,3.28764,127.422
42.5037,3.11489,127.522
42.537,3.19007,127.622
42.5703,3.30086,127.722
42.6035,3.30994,127.822
42.6368,3.27873,127.922
42.6699,3.24851,128.022
42.7033,3.31063,128.122
42.7367,3.35259,128.222
42.7702,3.45298,128.322
42.8036,3.31797,128.422
42.8369,3.28246,128.522
42.87,3.3795,128.622
42.9034,3.45288,128.722
42.9369,3.46799,128.822
42.9701,3.41496,128.922
43.0033,3.41516,129.022
43.0369,3.24009,129.122
43.0705,3.42333,129.222
43.1039,3.38115,129.322
43.137,3.38762,129.422
43.1703,3.58019,129.522
43.2037,3.36997,129.622
43.237,3.22401,129.722
43.2702,3.25842,129.822
43.3037,3.05972,129.922
43.337,2.9251,130.022
43.3705,2.88795,130.122
43.4039,2.77664,130.222
43.4371,2.83042,130.322
43.4704,2.72716,130.422
43.5036,2.67108,130.522
43.537,2.58354,130.622
43.5705,2.58978,130.722
43.6039,2.65504,130.822
43.6373,2.61556,130.922
43.6706,2.57401,131.022
43.7038,2.57378,131.122