File: Data/Selected_data/SSP_2025-03-19_D6_OPER.csv
Crossheadmm,LoadN,Timesec
0.0344,0.0338565,0.114
0.0672,0.227972,0.214
0.1007,0.353169,0.314
0.1343,0.496611,0.414
0.1678,0.506263,0.514
0.2013,0.249701,0.614
0.2346,0.239137,0.714
0.2677,0.649548,0.814
0.3008,0.476454,0.914
0.3342,0.738246,1.014
0.3676,0.616613,1.114
0.401,0.591777,1.214
0.4344,0.663653,1.314
0.468,0.77316,1.414
0.5012,0.906686,1.514
0.5342,0.873144,1.614
0.5674,0.944941,1.714
0.6007,1.0181,1.814
0.6343,1.02505,1.914
0.6678,1.21654,2.014
0.7011,1.0799,2.114
0.7344,1.13299,2.214
0.7676,1.21444,2.314
0.8008,1.2612,2.414
0.8339,1.42949,2.514
0.8674,1.5346,2.614
0.9009,1.61092,2.714
0.9343,1.81066,2.814
0.9677,1.87736,2.914
1.0009,1.93799,3.014
1.0341,2.13053,3.114
1.0674,2.3305,3.214
1.1008,2.46565,3.314
1.1338,2.72364,3.414
1.1674,2.89105,3.514
1.201,3.29859,3.614
1.2345,3.47294,3.714
1.2677,3.62028,3.814
1.3009,3.94278,3.914
1.3341,4.06725,4.014
1.3674,4.37347,4.114
1.4007,4.55933,4.214
1.4342,5.05644,4.314
1.4676,5.24119,4.414
1.5008,5.40124,4.514
1.5343,5.91892,4.614
1.5676,6.37636,4.714
1.6008,6.63798,4.814
1.6341,6.9998,4.914
1.6674,7.26981,5.014
1.7009,7.61518,5.114
1.7344,7.8934,5.214
1.7677,8.41158,5.314
1.8011,8.75914,5.414
1.8343,9.2909,5.514
1.8676,9.45137,5.614
1.9008,9.8282,5.714
1.9341,10.2251,5.814
1.9675,10.4056,5.914
2.0009,11.1578,6.014
2.0344,11.3773,6.114
2.068,11.9648,6.214
2.1011,12.3971,6.314
2.1341,12.83,6.414
2.1674,13.2622,6.514
2.2009,13.6539,6.614
2.2345,14.2149,6.714
2.2679,14.6905,6.814
2.3012,14.9975,6.914
2.3348,15.6071,7.014
2.3682,16.063,7.114
2.4014,16.5213,7.214
2.4345,17.0164,7.314
2.4673,17.5508,7.414
2.5008,18.0241,7.514
2.5344,18.4365,7.614
2.5679,18.9139,7.714
2.6013,19.4546,7.814
2.6347,20.128,7.914
2.6678,20.5685,8.014
2.701,21.0838,8.114
2.7342,21.7213,8.214
2.7677,22.0288,8.314
2.8011,22.5541,8.414
2.8346,23.0931,8.514
2.8682,23.4878,8.614
2.9014,23.7802,8.714
2.9345,24.3996,8.814
2.9677,24.7724,8.914
3.001,25.1215,9.014
3.0345,25.7011,9.114
3.0681,26.2023,9.214
3.1014,26.7719,9.314
3.1347,27.3983,9.414
3.1679,27.5302,9.514
3.2011,27.948,9.614
3.2343,28.453,9.714
3.2677,28.8778,9.814
3.3012,29.3309,9.914
3.3346,29.8503,10.014
3.368,30.4868,10.114
3.4013,30.7799,10.214
3.4344,31.1416,10.314
3.4679,31.6189,10.414
3.5012,32.0307,10.514
3.5342,32.3717,10.614
3.5676,32.849,10.714
3.6013,33.2948,10.814
3.6348,33.6241,10.914
3.668,34.1249,11.014
3.7012,34.4882,11.114
3.7345,34.5414,11.214
3.7678,34.755,11.314
3.801,35.1606,11.414
3.8344,35.449,11.514
3.8678,35.3521,11.614
3.9011,35.754,11.714
3.9346,35.3217,11.814
3.9679,33.5938,11.914
4.0011,33.3952,12.014
4.0344,33.7974,12.114
4.0676,34.2105,12.214
4.101,34.6822,12.314
4.1346,31.9807,12.414
4.168,32.5531,12.514
4.2012,32.8368,12.614
4.2344,33.5125,12.714
4.2677,33.9343,12.814
4.3009,25.7529,12.914
4.3342,25.1315,13.014
4.3676,25.0978,13.114
4.4009,25.8222,13.214
4.4345,26.272,13.314
4.468,26.5955,13.414
4.5011,26.5825,13.514
4.5341,25.31,13.614
4.5674,25.5951,13.714
4.6008,25.9376,13.814
4.6344,26.3149,13.914
4.6678,26.4945,14.014
4.7011,26.8156,14.114
4.7346,26.7147,14.214
4.7679,26.9955,14.314
4.8011,27.3158,14.414
4.8343,27.6657,14.514
4.8672,27.7502,14.614
4.9005,27.8106,14.714
4.9343,27.0589,14.814
4.9678,26.6725,14.914
5.0013,19.8584,15.014
5.0344,18.6373,15.114
5.0676,18.58,15.214
5.1008,18.364,15.314
5.1341,17.7115,15.414
5.1675,17.7013,15.514
5.2009,18.176,15.614
5.2344,18.338,15.714
5.268,18.6119,15.814
5.3012,19.0566,15.914
5.3342,19.4574,16.014
5.3673,19.9231,16.114
5.4007,20.1854,16.214
5.4342,20.3743,16.314
5.4678,20.9689,16.414
5.5011,21.2088,16.514
5.5343,21.7315,16.614
5.5675,21.8803,16.714
5.6007,22.3154,16.814
5.634,22.2228,16.914
5.6674,21.8094,17.014
5.7008,22.3015,17.114
5.7343,22.5842,17.214
5.7676,22.9734,17.314
5.8009,23.3481,17.414
5.8341,23.7041,17.514
5.8675,24.2202,17.614
5.9007,24.699,17.714
5.9339,25.2107,17.814
5.9673,25.6187,17.914
6.001,26.1906,18.014
6.0344,26.5559,18.114
6.0677,27.0673,18.214
6.1009,27.6032,18.314
6.1342,27.6517,18.414
6.1675,27.3558,18.514
6.2008,27.8738,18.614
6.2341,28.2594,18.714
6.2676,28.7991,18.814
6.3008,29.2346,18.914
6.3344,29.8256,19.014
6.3677,30.267,19.114
6.4009,30.8192,19.214
6.4342,31.5538,19.314
6.4675,32.0818,19.414
6.5009,32.6063,19.514
6.5345,33.1544,19.614
6.5678,33.9003,19.714
6.6012,34.4255,19.814
6.6344,35.2088,19.914
6.6678,35.8869,20.014
6.7009,36.4637,20.114
6.7342,37.2219,20.214
6.7675,37.9613,20.314
6.801,38.7346,20.414
6.8346,36.9885,20.514
6.8681,37.7554,20.614
6.9011,38.735,20.714
6.9343,39.27,20.814
6.9677,40.248,20.914
7.001,40.894,21.014
7.0346,41.7496,21.114
7.068,42.7154,21.214
7.1013,43.5179,21.314
7.1349,44.534,21.414
7.1682,45.2498,21.514
7.2013,46.323,21.614
7.2346,47.341,21.714
7.2674,48.0113,21.814
7.3008,48.9007,21.914
7.3345,49.9428,22.014
7.368,50.8272,22.114
7.4014,51.889,22.214
7.4347,52.7402,22.314
7.4678,53.9213,22.414
7.5011,54.7291,22.514
7.5343,55.7414,22.614
7.5677,56.6973,22.714
7.6011,57.2883,22.814
7.6347,57.6362,22.914
7.6682,58.8443,23.014
7.7015,60.4028,23.114
7.7345,61.7265,23.214
7.7676,63.0868,23.314
7.801,64.7257,23.414
7.8344,66.1461,23.514
7.8681,67.7633,23.614
7.9014,69.0061,23.714
7.9347,70.6421,23.814
7.9679,71.669,23.914
8.0009,72.6725,24.014
8.0343,74.1613,24.114
8.0677,75.7142,24.214
8.101,77.2035,24.314
8.1345,78.7533,24.414
8.1678,80.4039,24.514
8.2011,81.898,24.614
8.2343,83.5735,24.714
8.2678,85.111,24.814
8.301,86.5608,24.914
8.3341,88.1563,25.014
8.3675,89.8228,25.114
8.4012,91.164,25.214
8.4346,93.0925,25.314
8.4678,94.5848,25.414
8.501,96.3156,25.514
8.5343,98.0313,25.614
8.5676,99.5804,25.714
8.6007,101.359,25.814
8.6341,102.824,25.914
8.6676,104.637,26.014
8.7009,105.812,26.114
8.7345,107.158,26.214
8.7677,108.434,26.314
8.8009,109.1,26.414
8.8342,110.605,26.514
8.8674,111.782,26.614
8.9008,110.786,26.714
8.9344,112.385,26.814
8.9677,113.574,26.914
9.001,115.453,27.014
9.0343,117.055,27.114
9.0676,118.672,27.214
9.1009,120.326,27.314
9.134,121.437,27.414
9.1673,122.495,27.514
9.2008,124.261,27.614
9.2345,125.32,27.714
9.2678,127.073,27.814
9.3009,128.809,27.914
9.3341,130.656,28.014
9.3675,132.639,28.114
9.4006,134.443,28.214
9.4342,136.192,28.314
9.4678,137.759,28.414
9.5011,139.57,28.514
9.5345,139.943,28.614
9.5679,140.822,28.714
9.601,139.568,28.814
9.6342,139.547,28.914
9.6671,138.668,29.014
9.7005,139.878,29.114
9.7343,141.226,29.214
9.7677,142.037,29.314
9.8011,143.996,29.414
9.8344,145.8,29.514
9.8675,147.479,29.614
9.9007,149.501,29.714
9.934,151.418,29.814
9.9673,151.724,29.914
10.0008,153.069,30.014
10.0343,151.839,30.114
10.0678,149.212,30.214
10.101,140.104,30.314
10.1341,126.279,30.414
10.1672,113.902,30.514
10.2006,112.954,30.614
10.234,114.005,30.714
10.2677,115.049,30.814
10.301,116.373,30.914
10.3343,117.533,31.014
10.3675,118.892,31.114
10.4005,120.24,31.214
10.4339,121.919,31.314
10.4674,123.152,31.414
10.5007,124.237,31.514
10.5342,124.956,31.614
10.5675,109.874,31.714
10.6008,110.633,31.814
10.6342,111.5,31.914
10.6675,111.184,32.014
10.7007,112.006,32.114
10.7339,112.493,32.214
10.7674,113.681,32.314
10.801,114.905,32.414
10.8344,116.003,32.514
10.8677,117.315,32.614
10.901,118.806,32.714
10.9342,120.164,32.814
10.9676,121.492,32.914
11.0008,122.545,33.014
11.0341,123.815,33.114
11.0675,125.247,33.214
11.1009,125.976,33.314
11.1344,125.797,33.414
11.1677,126.598,33.514
11.201,127.742,33.614
11.2342,128.674,33.714
11.2676,129.893,33.814
11.3009,129.987,33.914
11.3344,130.899,34.014
11.3678,131.656,34.114
11.4011,132.218,34.214
11.4344,121.425,34.314
11.4677,118.601,34.414
11.501,118.971,34.514
11.5342,119.786,34.614
11.5675,121.016,34.714
11.601,121.794,34.814
11.6347,122.833,34.914
11.668,123.412,35.014
11.701,124.066,35.114
11.7344,125.142,35.214
11.7677,126.537,35.314
11.801,127.485,35.414
11.8344,128.239,35.514
11.8679,129.02,35.614
11.9013,109.16,35.714
11.9348,105.614,35.814
11.9682,104.077,35.914
12.0013,103.332,36.014
12.0344,102.063,36.114
12.0675,101.267,36.214
12.1008,88.0386,36.314
12.1345,86.5771,36.414
12.168,84.3396,36.514
12.2015,82.7882,36.614
12.2347,81.6507,36.714
12.2678,81.82,36.814
12.3011,80.8441,36.914
12.3344,79.0698,37.014
12.3677,76.6237,37.114
12.4011,74.6322,37.214
12.4347,74.258,37.314
12.4682,73.6771,37.414
12.5013,73.1285,37.514
12.5344,68.6923,37.614
12.5677,50.1585,37.714
12.601,49.0098,37.814
12.6344,48.618,37.914
12.6679,48.3969,38.014
12.7013,47.9917,38.114
12.7346,46.4269,38.214
12.7678,43.589,38.314
12.801,40.2271,38.414
12.8344,38.8604,38.514
12.8678,38.1338,38.614
12.901,37.5812,38.714
12.9345,37.0654,38.814
12.9678,36.9063,38.914
13.0011,36.6812,39.014
13.0344,36.598,39.114
13.0678,36.4261,39.214
13.1009,36.2276,39.314
13.1342,35.8306,39.414
13.1676,35.5337,39.514
13.2013,35.1366,39.614
13.2346,34.5201,39.714
13.2679,32.7318,39.814
13.3011,30.7833,39.914
13.3344,30.3686,40.014
13.3677,30.0056,40.114
13.4009,29.6594,40.214
13.4342,29.3995,40.314
13.4675,29.2646,40.414
13.5011,28.715,40.514
13.5346,28.1697,40.614
13.5678,27.9062,40.714
13.601,27.6046,40.814
13.6344,27.4083,40.914
13.6677,27.1574,41.014
13.701,26.9032,41.114
13.7345,26.5159,41.214
13.7679,26.2923,41.314
13.8012,25.2147,41.414
13.8345,25.047,41.514
13.8677,24.5132,41.614
13.9011,24.1009,41.714
13.9342,23.9585,41.814
13.9674,23.8114,41.914
14.0009,23.3398,42.014
14.0347,23.2916,42.114
14.0679,23.1794,42.214
14.1009,22.9208,42.314
14.1342,22.72,42.414
14.1676,22.5952,42.514
14.2009,22.1905,42.614
14.2342,21.9672,42.714
14.2676,21.8481,42.814
14.3012,21.4884,42.914
14.3346,21.0845,43.014
14.3679,20.8949,43.114
14.401,20.5083,43.214
14.434,20.2661,43.314
14.4671,20.0172,43.414
14.5006,19.8865,43.514
14.5342,19.7437,43.614
14.5677,19.5499,43.714
14.6011,19.4306,43.814
14.6343,19.342,43.914
14.6674,19.2402,44.014
14.7007,19.2766,44.114
14.734,19.3005,44.214
14.7673,19.0768,44.314
14.8007,19.0984,44.414
14.8344,19.0951,44.514
14.8678,19.0827,44.614
14.9009,19.0495,44.714
14.934,18.5963,44.814
14.9673,18.395,44.914
15.0007,18.0426,45.014
15.0341,18.2359,45.114
15.0675,18.0368,45.214
15.1009,17.8135,45.314
15.1342,17.3704,45.414
15.1675,17.4477,45.514
15.2006,17.0663,45.614
15.2341,16.917,45.714
15.2674,16.7661,45.814
15.3008,16.1924,45.914
15.3342,14.8899,46.014
15.3676,13.9735,46.114
15.4009,13.3873,46.214
15.4343,12.9781,46.314
15.4676,12.6743,46.414
15.5008,12.3236,46.514
15.534,12.1041,46.614
15.5675,11.6919,46.714
15.6011,11.556,46.814
15.6345,11.3795,46.914
15.6677,11.0482,47.014
15.701,10.8197,47.114
15.7343,10.6395,47.214
15.7677,10.6384,47.314
15.8008,9.7446,47.414
15.8342,9.3729,47.514
15.8674,9.31413,47.614
15.9011,9.29341,47.714
15.9345,8.12889,47.814
15.9678,7.93889,47.914
16.0011,7.82594,48.014
16.0344,7.47486,48.114
16.0677,7.54786,48.214
16.1011,7.58787,48.314
16.1345,7.37505,48.414
16.168,7.33996,48.514
16.2012,7.29379,48.614
16.2346,7.38956,48.714
16.2679,7.57055,48.814
16.3012,7.19881,48.914
16.3343,7.37694,49.014
16.3676,7.05697,49.114
16.4011,6.35227,49.214
16.4349,6.03427,49.314
16.468,6.15201,49.414
16.5011,5.70696,49.514
16.5345,5.44899,49.614
16.5679,5.50159,49.714
16.6013,5.06665,49.814
16.6345,5.24826,49.914
16.6678,5.25009,50.014
16.7014,4.76956,50.114
16.7348,4.50409,50.214
16.7682,4.26507,50.314
16.8014,4.33545,50.414
16.8343,4.36471,50.514
16.8675,4.14722,50.614
16.901,4.08534,50.714
16.9345,3.9286,50.814
16.9681,3.86824,50.914
17.0015,3.76343,51.014
17.0347,3.18521,51.114
17.0679,3.07319,51.214
17.1012,2.79966,51.314
17.1345,2.86635,51.414
17.1677,2.70125,51.514
17.2011,2.90841,51.614
17.2349,2.85793,51.714
17.2682,2.35226,51.814
17.3013,2.55188,51.914
17.3345,2.65174,52.014
17.3678,2.56136,52.114
17.4012,2.48031,52.214
17.4346,2.67636,52.314
17.4679,2.41609,52.414
17.5014,2.3738,52.514
17.5346,2.41607,52.614
17.5679,2.43431,52.714
17.6011,2.54048,52.814
17.6345,2.4504,52.914
17.6679,2.50662,53.014
17.7011,2.49285,53.114
17.7344,2.51229,53.214
17.7679,2.42252,53.314
17.8011,2.34146,53.414
17.8345,2.6201,53.514
17.8679,2.41874,53.614
17.9009,2.46035,53.714
17.9342,2.37512,53.814
17.9677,2.54546,53.914
18.0011,2.52076,54.014
18.0346,2.56278,54.114
18.0678,2.53696,54.214
18.101,2.63132,54.314
18.1344,2.52336,54.414
18.1677,2.48898,54.514
18.2009,2.4109,54.614
18.2341,2.49013,54.714
18.2674,2.35497,54.814
18.301,2.35443,54.914
18.3345,2.29833,55.014
18.3677,2.54134,55.114
18.401,2.45518,55.214
18.4342,2.40098,55.314
18.4675,2.73377,55.414
18.5008,2.41798,55.514
18.5342,2.23686,55.614
18.5677,2.5662,55.714
18.601,2.54142,55.814
18.6344,2.29965,55.914
18.6676,2.27976,56.014
18.7009,2.17028,56.114
18.7341,2.13445,56.214
18.7673,2.30096,56.314
18.8008,2.27319,56.414
18.8346,2.31621,56.514
18.8676,2.27628,56.614
18.9008,2.08683,56.714
18.9342,2.34598,56.814
18.9676,2.00599,56.914
19.001,2.32586,57.014
19.0342,2.13411,57.114
19.0674,1.8818,57.214
19.1012,1.80682,57.314
19.1346,1.66813,57.414
19.1678,1.86876,57.514
19.2011,1.63239,57.614
19.2339,1.65072,57.714
19.2672,1.67017,57.814
19.3007,1.75485,57.914
19.3341,1.61984,58.014
19.3677,1.74994,58.114
19.4011,1.61368,58.214
19.4342,1.6679,58.314
19.4675,1.80932,58.414
19.5008,1.65789,58.514
19.5341,1.6535,58.614
19.5674,1.66969,58.714
19.6008,1.68833,58.814
19.6345,1.24978,58.914
19.6679,1.64584,59.014
19.7009,1.34632,59.114
19.7341,1.51065,59.214
19.7674,1.29242,59.314
19.8008,1.45592,59.414
19.8342,1.10807,59.514
19.8675,1.24074,59.614
19.9009,1.22317,59.714
19.9343,1.07015,59.814
19.9674,0.93397,59.914
20.0008,1.21907,60.014
20.0342,0.929707,60.114
20.0676,0.969359,60.214
20.1009,1.01852,60.314
20.1342,1.00577,60.414
20.1677,1.10821,60.514
20.2009,1.0225,60.614