File: Data/Selected_data/SSP_2022-12-08_B11_NO.csv
Crossheadmm,LoadN,Timesec
0.0,0.22,0.000
0.01,0.43,0.100
0.02,0.01,0.200
0.03,0.25,0.300
0.04,0.18,0.400
0.04,0.25,0.500
0.05,0.04,0.600
0.06,0.29,0.700
0.07,0.2,0.800
0.08,0.27,0.900
0.09,0.07,1.000
0.09,0.43,1.100
0.1,0.2,1.200
0.11,0.15,1.300
0.12,0.06,1.400
0.13,0.15,1.500
0.14,0.23,1.600
0.14,0.09,1.700
0.15,0.16,1.800
0.16,0.16,1.900
0.17,0.06,2.000
0.18,0.31,2.100
0.19,0.16,2.200
0.19,0.19,2.300
0.2,0.34,2.400
0.21,0.35,2.500
0.22,0.26,2.600
0.23,0.3,2.700
0.24,0.1,2.800
0.24,0.43,2.900
0.25,0.4,3.000
0.26,0.57,3.100
0.27,0.51,3.200
0.28,0.69,3.300
0.29,0.94,3.400
0.29,0.78,3.500
0.3,0.91,3.600
0.31,1.26,3.700
0.32,1.55,3.800
0.33,1.83,3.900
0.34,2.1,4.000
0.34,2.33,4.100
0.35,2.63,4.200
0.36,3.09,4.300
0.37,3.51,4.400
0.38,3.66,4.500
0.39,4.19,4.600
0.39,4.32,4.700
0.4,4.55,4.800
0.41,4.86,4.900
0.42,4.98,5.000
0.43,5.4,5.100
0.44,5.81,5.200
0.44,6.26,5.300
0.45,6.9,5.400
0.46,7.27,5.500
0.47,7.9,5.600
0.48,8.46,5.700
0.49,8.9,5.800
0.49,9.29,5.900
0.5,9.97,6.000
0.51,10.33,6.100
0.52,10.99,6.200
0.53,11.43,6.300
0.54,12.14,6.400
0.54,12.69,6.500
0.55,13.43,6.600
0.56,14.12,6.700
0.57,14.68,6.800
0.58,15.5,6.900
0.59,16.34,7.000
0.59,17.09,7.100
0.6,18.12,7.200
0.61,18.98,7.300
0.62,19.73,7.400
0.63,20.74,7.500
0.64,21.66,7.600
0.64,22.58,7.700
0.65,23.76,7.800
0.66,24.77,7.900
0.67,25.7,8.000
0.68,26.59,8.100
0.69,28.07,8.200
0.69,29.14,8.300
0.7,30.2,8.400
0.71,31.55,8.500
0.72,32.74,8.600
0.73,33.8,8.700
0.74,35.3,8.800
0.74,36.44,8.900
0.75,37.63,9.000
0.76,38.92,9.100
0.77,40.18,9.200
0.78,41.52,9.300
0.79,42.94,9.400
0.79,44.24,9.500
0.8,45.63,9.600
0.81,46.73,9.700
0.82,48.31,9.800
0.83,49.7,9.900
0.84,51.0,10.000
0.84,52.38,10.100
0.85,53.9,10.200
0.86,55.28,10.300
0.87,56.84,10.400
0.88,58.35,10.500
0.89,59.83,10.600
0.89,61.29,10.700
0.9,62.85,10.800
0.91,64.43,10.900
0.92,65.89,11.000
0.93,67.41,11.100
0.94,69.1,11.200
0.94,70.65,11.300
0.95,72.23,11.400
0.96,73.65,11.500
0.97,75.51,11.600
0.98,76.75,11.700
0.99,78.43,11.800
0.99,80.0,11.900
1.0,81.69,12.000
1.01,83.21,12.100
1.02,84.83,12.200
1.03,86.51,12.300
1.04,88.01,12.400
1.04,89.57,12.500
1.05,91.24,12.600
1.06,92.82,12.700
1.07,94.42,12.800
1.08,96.0,12.900
1.09,97.73,13.000
1.09,99.45,13.100
1.1,101.11,13.200
1.11,102.65,13.300
1.12,104.35,13.400
1.13,106.17,13.500
1.14,107.73,13.600
1.14,109.47,13.700
1.15,111.14,13.800
1.16,112.73,13.900
1.17,114.31,14.000
1.18,115.93,14.100
1.19,117.65,14.200
1.19,119.37,14.300
1.2,121.3,14.400
1.21,122.99,14.500
1.22,124.81,14.600
1.23,126.49,14.700
1.24,127.93,14.800
1.24,129.93,14.900
1.25,131.52,15.000
1.26,133.26,15.100
1.27,135.05,15.200
1.28,136.67,15.300
1.29,138.31,15.400
1.29,140.39,15.500
1.3,142.07,15.600
1.31,143.62,15.700
1.32,145.17,15.800
1.33,147.18,15.900
1.34,148.74,16.000
1.34,150.83,16.100
1.35,152.65,16.200
1.36,154.63,16.300
1.37,156.32,16.400
1.38,157.99,16.500
1.39,159.74,16.600
1.39,161.67,16.700
1.4,163.31,16.800
1.41,164.89,16.900
1.42,166.7,17.000
1.43,168.53,17.100
1.44,170.34,17.200
1.44,172.25,17.300
1.45,174.13,17.400
1.46,175.77,17.500
1.47,177.34,17.600
1.48,179.17,17.700
1.49,181.03,17.800
1.49,183.14,17.900
1.5,184.6,18.000
1.51,186.45,18.100
1.52,188.51,18.200
1.53,190.12,18.300
1.54,191.64,18.400
1.54,193.52,18.500
1.55,195.24,18.600
1.56,196.9,18.700
1.57,198.54,18.800
1.58,200.25,18.900
1.59,201.87,19.000
1.59,203.54,19.100
1.6,205.28,19.200
1.61,206.97,19.300
1.62,208.7,19.400
1.63,210.69,19.500
1.64,212.2,19.600
1.64,214.32,19.700
1.65,216.0,19.800
1.66,217.48,19.900
1.67,219.39,20.000
1.68,221.04,20.100
1.69,222.64,20.200
1.69,224.46,20.300
1.7,226.02,20.400
1.71,227.76,20.500
1.72,229.44,20.600
1.73,231.23,20.700
1.74,233.04,20.800
1.74,234.62,20.900
1.75,236.06,21.000
1.76,237.92,21.100
1.77,239.62,21.200
1.78,241.33,21.300
1.79,242.86,21.400
1.79,244.84,21.500
1.8,246.28,21.600
1.81,248.1,21.700
1.82,249.55,21.800
1.83,251.57,21.900
1.84,253.01,22.000
1.84,254.72,22.100
1.85,256.38,22.200
1.86,258.11,22.300
1.87,259.53,22.400
1.88,261.23,22.500
1.89,262.85,22.600
1.89,264.61,22.700
1.9,266.19,22.800
1.91,268.03,22.900
1.92,269.45,23.000
1.93,271.25,23.100
1.94,272.91,23.200
1.94,274.53,23.300
1.95,275.97,23.400
1.96,277.95,23.500
1.97,279.29,23.600
1.98,280.92,23.700
1.99,282.51,23.800
1.99,283.91,23.900
2.0,285.57,24.000
2.01,286.9,24.100
2.02,288.39,24.200
2.03,290.04,24.300
2.04,291.64,24.400
2.04,293.38,24.500
2.05,294.85,24.600
2.06,296.44,24.700
2.07,297.92,24.800
2.08,299.39,24.900
2.09,301.06,25.000
2.09,302.58,25.100
2.1,303.98,25.200
2.11,305.57,25.300
2.12,306.86,25.400
2.13,308.59,25.500
2.14,309.77,25.600
2.14,311.55,25.700
2.15,312.78,25.800
2.16,314.55,25.900
2.17,315.81,26.000
2.18,317.44,26.100
2.19,318.8,26.200
2.19,320.4,26.300
2.2,321.78,26.400
2.21,323.24,26.500
2.22,324.48,26.600
2.23,326.27,26.700
2.24,327.69,26.800
2.24,329.16,26.900
2.25,330.41,27.000
2.26,332.03,27.100
2.27,333.54,27.200
2.28,334.81,27.300
2.29,336.3,27.400
2.29,338.02,27.500
2.3,339.42,27.600
2.31,340.76,27.700
2.32,342.05,27.800
2.33,343.59,27.900
2.34,345.06,28.000
2.34,346.73,28.100
2.35,347.97,28.200
2.36,349.5,28.300
2.37,350.88,28.400
2.38,352.36,28.500
2.39,353.69,28.600
2.39,355.48,28.700
2.4,356.41,28.800
2.41,357.88,28.900
2.42,359.3,29.000
2.43,360.72,29.100
2.44,362.03,29.200
2.44,363.28,29.300
2.45,364.3,29.400
2.46,365.63,29.500
2.47,366.99,29.600
2.48,368.45,29.700
2.49,369.05,29.800
2.49,370.61,29.900
2.5,371.49,30.000
2.51,372.95,30.100
2.52,374.17,30.200
2.53,375.54,30.300
2.54,376.77,30.400
2.54,378.11,30.500
2.55,379.34,30.600
2.56,380.81,30.700
2.57,381.82,30.800
2.58,383.29,30.900
2.59,384.72,31.000
2.59,386.1,31.100
2.6,387.32,31.200
2.61,388.69,31.300
2.62,390.22,31.400
2.63,391.36,31.500
2.64,391.86,31.600
2.64,393.15,31.700
2.65,394.06,31.800
2.66,395.07,31.900
2.67,394.84,32.000
2.68,391.96,32.100
2.69,377.38,32.200
2.69,376.38,32.300
2.7,341.09,32.400
2.71,299.56,32.500
2.72,287.26,32.600
2.73,264.42,32.700
2.74,238.81,32.800
2.74,92.88,32.900
2.75,72.57,33.000