File: Data/Selected_data/SSP_2025-03-20_D9_NO.csv
Crossheadmm,LoadN,Timesec
0.0337,0.530937,0.112
0.0669,0.631933,0.212
0.1006,0.572379,0.312
0.1342,0.57506,0.412
0.1675,0.551688,0.512
0.2007,0.704728,0.612
0.234,0.781393,0.712
0.2674,0.729027,0.812
0.3006,1.02603,0.912
0.3339,1.09225,1.012
0.3672,1.1292,1.112
0.4006,1.28376,1.212
0.4342,1.38983,1.312
0.4676,1.31167,1.412
0.5009,1.48906,1.512
0.5342,1.63666,1.612
0.5675,1.62193,1.712
0.6008,1.89985,1.812
0.6342,2.06548,1.912
0.6676,2.27906,2.012
0.701,2.24446,2.112
0.7343,2.45344,2.212
0.7677,2.64043,2.312
0.8009,2.76754,2.412
0.8342,3.15754,2.512
0.8674,3.32779,2.612
0.9006,3.63433,2.712
0.9343,3.81592,2.812
0.9678,4.05487,2.912
1.001,4.52984,3.012
1.0343,4.83756,3.112
1.0678,5.20293,3.212
1.1009,5.28996,3.312
1.134,5.96317,3.412
1.1674,6.10896,3.512
1.201,6.75912,3.612
1.2344,7.10603,3.712
1.2678,7.61063,3.812
1.301,8.15284,3.912
1.3343,8.5921,4.012
1.3674,8.92974,4.112
1.4006,9.60287,4.212
1.434,10.0023,4.312
1.4676,10.6012,4.412
1.501,11.1961,4.512
1.5343,11.7725,4.612
1.5675,12.4483,4.712
1.6008,13.1634,4.812
1.6341,13.7304,4.912
1.6673,14.5043,5.012
1.7006,15.4286,5.112
1.7342,16.159,5.212
1.7676,16.7692,5.312
1.8009,17.4456,5.412
1.8341,18.6031,5.512
1.8673,19.7293,5.612
1.9006,20.6742,5.712
1.9339,21.9834,5.812
1.9674,23.3755,5.912
2.0009,24.9423,6.012
2.0342,26.2026,6.112
2.0673,28.0171,6.212
2.1004,29.5973,6.312
2.1338,31.1787,6.412
2.1673,32.9054,6.512
2.2005,34.6819,6.612
2.2338,36.5279,6.712
2.2673,38.2137,6.812
2.3006,40.3018,6.912
2.3338,42.0475,7.012
2.3673,43.7502,7.112
2.4007,45.7514,7.212
2.4337,48.1263,7.312
2.4669,50.1738,7.412
2.5004,52.4153,7.512
2.5341,54.7474,7.612
2.5674,56.6768,7.712
2.6005,58.7959,7.812
2.6338,60.2742,7.912
2.6671,62.2733,8.012
2.7004,64.5426,8.112
2.7336,66.1781,8.212
2.7669,67.4733,8.312
2.8004,66.9456,8.412
2.834,68.1203,8.512
2.8673,72.1413,8.612
2.9005,76.3179,8.712
2.9338,80.6896,8.812
2.9671,84.571,8.912
3.0004,88.6718,9.012
3.0338,93.1488,9.112
3.0672,97.8492,9.212
3.1006,102.633,9.312
3.1339,107.44,9.412
3.1673,112.641,9.512
3.2004,117.771,9.612
3.2337,122.852,9.712
3.267,128.594,9.812
3.3002,134.041,9.912
3.3339,139.706,10.012
3.3674,145.335,10.112
3.4005,149.738,10.212
3.434,145.925,10.312
3.4674,150.272,10.412
3.5002,156.418,10.512
3.5335,162.584,10.612
3.567,169.325,10.712
3.6005,175.835,10.812
3.634,182.512,10.912
3.6673,188.609,11.012
3.7005,195.135,11.112
3.7338,201.853,11.212
3.7669,208.588,11.312
3.8002,215.297,11.412
3.8336,222.643,11.512
3.8671,229.453,11.612
3.9006,236.83,11.712
3.9339,244.066,11.812
3.9672,251.399,11.912
4.0004,258.432,12.012
4.0338,265.842,12.112
4.067,273.165,12.212
4.1003,280.465,12.312
4.1338,286.929,12.412
4.1673,294.135,12.512
4.2006,301.321,12.612
4.2339,308.448,12.712
4.267,315.716,12.812
4.3004,323.111,12.912
4.3336,330.219,13.012
4.3672,337.294,13.112
4.4006,334.506,13.212
4.4339,313.621,13.312
4.4671,315.92,13.412
4.5003,319.615,13.512
4.5338,293.471,13.612
4.5673,294.392,13.712
4.6005,296.76,13.812
4.6339,290.674,13.912
4.6672,295.975,14.012
4.7006,297.779,14.112
4.7339,287.123,14.212
4.7674,290.212,14.312
4.8008,295.147,14.412
4.8338,299.708,14.512
4.8671,298.56,14.612
4.9006,303.297,14.712
4.9341,303.249,14.812
4.9675,246.321,14.912
5.0007,246.235,15.012
5.0341,248.497,15.112
5.0674,252.332,15.212
5.1006,256.048,15.312
5.1339,258.462,15.412
5.1671,257.314,15.512
5.2006,256.955,15.612
5.2341,224.831,15.712
5.2675,214.845,15.812
5.3008,191.527,15.912
5.3341,187.085,16.012
5.3674,186.597,16.112
5.4007,186.92,16.212
5.434,180.401,16.312
5.4675,181.695,16.412
5.5009,183.758,16.512
5.5342,184.91,16.612
5.5675,185.842,16.712
5.6008,187.773,16.812
5.634,189.242,16.912
5.6673,187.821,17.012
5.7006,151.85,17.112
5.7342,152.311,17.212
5.7677,145.604,17.312
5.8008,135.767,17.412
5.8343,131.438,17.512
5.8677,131.717,17.612
5.9006,131.369,17.712
5.9339,131.919,17.812
5.9673,132.634,17.912
6.0008,133.873,18.012
6.0343,135.017,18.112
6.0676,135.832,18.212
6.1009,131.169,18.312
6.1341,130.615,18.412
6.1673,128.71,18.512
6.2007,30.593,18.612
6.234,30.91,18.712
6.2675,30.9307,18.812
6.301,31.1002,18.912
6.3343,31.5171,19.012
6.3675,31.4124,19.112
6.4007,31.1797,19.212
6.434,30.606,19.312
6.4672,26.3261,19.412
6.5005,18.5373,19.512
6.534,17.757,19.612
6.5675,17.1695,19.712
6.6009,16.8232,19.812
6.6341,16.4089,19.912
6.6673,16.1781,20.012
6.7006,15.8405,20.112
6.7339,15.9412,20.212
6.7673,15.6221,20.312
6.8007,15.1233,20.412
6.834,14.8269,20.512
6.8673,14.6578,20.612
6.9003,14.1364,20.712
6.9338,13.6978,20.812
6.9673,13.5348,20.912
7.0005,13.2112,21.012
7.0338,12.8055,21.112
7.0671,12.371,21.212
7.1005,12.0598,21.312
7.1338,11.3855,21.412
7.1673,11.6228,21.512
7.2006,11.249,21.612
7.2337,11.2781,21.712
7.267,10.8225,21.812
7.3005,10.8937,21.912
7.334,10.9282,22.012
7.3673,10.7257,22.112
7.4006,10.018,22.212
7.4339,9.66257,22.312
7.4672,9.34337,22.412
7.5005,9.15865,22.512
7.5338,8.85545,22.612
7.5669,8.67361,22.712
7.6004,8.48037,22.812
7.634,8.20315,22.912
7.6672,8.23831,23.012
7.7006,8.06889,23.112
7.7338,7.87807,23.212
7.7672,7.70541,23.312
7.8004,7.57671,23.412
7.8337,7.2892,23.512
7.8672,7.09449,23.612
7.9007,7.10527,23.712
7.9339,6.86242,23.812
7.9673,6.89861,23.912
8.0005,6.8473,24.012
8.0338,6.72711,24.112
8.067,6.70292,24.212
8.1003,6.74328,24.312
8.134,6.42108,24.412
8.1674,6.40433,24.512
8.2006,5.85403,24.612
8.2342,5.4169,24.712
8.2675,5.36819,24.812
8.3005,5.30573,24.912
8.3337,5.24132,25.012
8.3672,5.22606,25.112
8.4007,5.31487,25.212
8.4342,5.17491,25.312
8.4675,5.22724,25.412
8.5008,5.24555,25.512
8.534,4.94735,25.612
8.5672,5.07294,25.712
8.6006,5.00055,25.812
8.634,4.92968,25.912
8.6675,5.03662,26.012
8.7009,4.90538,26.112
8.7342,5.01781,26.212
8.7675,4.90026,26.312
8.8008,4.8825,26.412
8.8341,4.83049,26.512
8.8674,4.95189,26.612
8.9006,4.86905,26.712
8.9342,4.9361,26.812
8.9677,4.92623,26.912
9.001,4.80755,27.012
9.0343,4.73675,27.112
9.0675,4.61253,27.212
9.1009,4.68524,27.312
9.1342,4.66449,27.412
9.1676,4.64627,27.512
9.2009,4.57393,27.612
9.2342,4.43307,27.712
9.2675,4.22332,27.812
9.3007,4.17233,27.912
9.3342,4.14379,28.012
9.3675,4.20793,28.112
9.4008,3.96334,28.212
9.4342,3.99112,28.312
9.4674,3.74968,28.412
9.5008,3.77479,28.512
9.5341,3.92769,28.612
9.5677,3.83401,28.712
9.601,3.66869,28.812
9.634,3.89446,28.912
9.6674,3.61527,29.012
9.7009,3.52159,29.112
9.7342,3.40536,29.212
9.7676,3.21975,29.312
9.8008,3.55373,29.412
9.8343,3.48416,29.512
9.8676,3.43005,29.612
9.9008,3.49629,29.712
9.9341,3.2643,29.812
9.9672,3.41381,29.912
10.0007,3.28321,30.012
10.0343,3.3229,30.112
10.0676,3.24873,30.212
10.1009,3.21354,30.312
10.1342,3.30102,30.412
10.1675,3.35862,30.512
10.2008,3.31685,30.612
10.2341,3.38562,30.712
10.2675,3.16066,30.812
10.3009,3.28541,30.912
10.3343,3.28051,31.012
10.3675,3.23473,31.112
10.4009,3.39378,31.212
10.434,3.29001,31.312
10.4673,3.31396,31.412
10.5006,3.36738,31.512
10.5342,3.38945,31.612
10.5676,3.48588,31.712
10.6008,3.36737,31.812
10.6343,3.51571,31.912
10.6677,3.54412,32.012
10.7006,3.69784,32.112
10.7339,3.37594,32.212
10.7672,3.60979,32.312
10.8007,3.62653,32.412
10.8343,3.57964,32.512
10.8675,3.58541,32.612
10.9008,3.60438,32.712
10.934,3.69432,32.812
10.9672,3.70937,32.912
11.0006,3.74343,33.012
11.034,3.78746,33.112
11.0673,3.8173,33.212
11.1009,3.63759,33.312
11.1341,3.90119,33.412
11.1674,3.3147,33.512
11.2007,3.12699,33.612
11.234,3.27261,33.712