File: Data/Selected_data/SSP_2025-03-18_D4_NO.csv
Crossheadmm,LoadN,Timesec
0.0336,11.7043,0.112
0.0668,13.983,0.212
0.1003,16.1562,0.312
0.1337,18.2909,0.412
0.1672,20.042,0.512
0.2005,21.7168,0.612
0.2338,23.41,0.712
0.2672,25.0327,0.812
0.3006,26.713,0.912
0.3338,28.3907,1.012
0.367,30.4845,1.112
0.4002,32.5656,1.212
0.4338,35.1699,1.312
0.4673,37.5268,1.412
0.5006,39.9921,1.512
0.534,42.6406,1.612
0.5672,45.4538,1.712
0.6004,48.3253,1.812
0.6336,51.3304,1.912
0.667,53.9498,2.012
0.7004,56.1667,2.112
0.7338,58.3282,2.212
0.7673,60.9283,2.312
0.801,63.8218,2.412
0.8341,66.5046,2.512
0.867,69.8446,2.612
0.9002,72.9403,2.712
0.9337,75.0342,2.812
0.9673,76.5524,2.912
1.0007,76.96,3.012
1.0341,75.9861,3.112
1.0677,74.5468,3.212
1.101,77.3858,3.312
1.1338,81.8959,3.412
1.1669,86.9016,3.512
1.2003,91.744,3.612
1.2339,96.6767,3.712
1.2674,101.497,3.812
1.3008,106.412,3.912
1.3341,111.542,4.012
1.3674,116.609,4.112
1.4007,121.747,4.212
1.4339,126.915,4.312
1.4673,132.313,4.412
1.5006,137.638,4.512
1.534,143.114,4.612
1.5674,148.534,4.712
1.601,153.105,4.812
1.6342,158.764,4.912
1.6675,164.465,5.012
1.7006,170.238,5.112
1.7339,175.831,5.212
1.7673,181.551,5.312
1.8008,186.956,5.412
1.8343,192.526,5.512
1.8675,198.189,5.612
1.9007,203.66,5.712
1.9339,209.499,5.812
1.9671,215.007,5.912
2.0005,220.903,6.012
2.034,226.703,6.112
2.0674,232.375,6.212
2.1009,238.398,6.312
2.1341,244.034,6.412
2.1672,249.512,6.512
2.2004,255.236,6.612
2.2339,260.676,6.712
2.2671,265.712,6.812
2.3006,269.034,6.912
2.3342,272.694,7.012
2.3678,276.392,7.112
2.4009,280.426,7.212
2.4339,284.622,7.312
2.4672,288.745,7.412
2.5006,293.293,7.512
2.5339,297.72,7.612
2.5673,301.964,7.712
2.6007,306.237,7.812
2.6339,310.37,7.912
2.6674,314.723,8.012
2.7008,318.557,8.112
2.7339,321.522,8.212
2.7672,325.023,8.312
2.8005,328.612,8.412
2.8339,332.111,8.512
2.8674,335.672,8.612
2.9008,339.419,8.712
2.9341,342.91,8.812
2.9673,345.819,8.912
3.0006,348.508,9.012
3.0338,351.405,9.112
3.0671,354.596,9.212
3.1003,357.177,9.312
3.1337,360.214,9.412
3.1673,363.183,9.512
3.2009,366.078,9.612
3.2339,368.419,9.712
3.2668,371.159,9.812
3.3001,374.062,9.912
3.3335,376.656,10.012
3.367,379.505,10.112
3.4005,381.417,10.212
3.4339,383.365,10.312
3.4675,385.535,10.412
3.5006,387.721,10.512
3.5334,389.878,10.612
3.5666,392.224,10.712
3.5999,394.596,10.812
3.6334,397.088,10.912
3.6671,399.383,11.012
3.7004,401.379,11.112
3.7337,402.612,11.212
3.767,404.608,11.312
3.8004,311.283,11.412
3.8336,308.986,11.512
3.8669,310.98,11.612
3.9003,298.836,11.712
3.9337,297.451,11.812
3.9671,260.103,11.912
4.0006,262.641,12.012
4.0339,263.92,12.112
4.067,268.445,12.212
4.1002,273.765,12.312
4.1335,279.124,12.412
4.167,283.376,12.512
4.2005,287.982,12.612
4.2339,293.294,12.712
4.2671,268.052,12.812
4.3004,257.871,12.912
4.3335,261.523,13.012
4.3667,266.381,13.112
4.4001,271.35,13.212
4.4336,275.995,13.312
4.4671,281.363,13.412
4.5005,285.785,13.512
4.5338,277.19,13.612
4.5668,280.774,13.712
4.6001,280.467,13.812
4.6335,284.042,13.912
4.6668,287.491,14.012
4.7003,290.514,14.112
4.7339,292.737,14.212
4.7673,296.69,14.312
4.8005,298.419,14.412
4.8335,301.535,14.512
4.8668,304.319,14.612
4.9002,307.8,14.712
4.9335,311.137,14.812
4.9669,266.025,14.912
5.0004,262.543,15.012
5.0336,262.829,15.112
5.0672,265.79,15.212
5.1005,268.168,15.312
5.1336,270.519,15.412
5.1669,273.265,15.512
5.2001,274.323,15.612
5.2336,276.477,15.712
5.2672,278.237,15.812
5.3005,280.241,15.912
5.3339,282.005,16.012
5.3671,284.095,16.112
5.4004,281.41,16.212
5.4336,248.826,16.312
5.4669,248.193,16.412
5.5003,245.702,16.512
5.5338,242.448,16.612
5.5674,243.194,16.712
5.601,244.347,16.812
5.634,244.549,16.912
5.667,245.403,17.012
5.7004,246.551,17.112
5.7338,247.536,17.212
5.7673,249.006,17.312
5.8008,249.845,17.412
5.8342,248.093,17.512
5.8678,247.591,17.612
5.9011,249.044,17.712
5.9338,250.622,17.812
5.9671,252.356,17.912
6.0004,253.717,18.012
6.034,122.039,18.112
6.0676,114.768,18.212
6.1009,115.416,18.312
6.1343,116.786,18.412
6.1676,118.367,18.512
6.2009,119.873,18.612
6.2341,119.31,18.712
6.2674,120.805,18.812
6.3006,122.069,18.912
6.3341,123.267,19.012
6.3675,124.139,19.112
6.401,124.227,19.212
6.4343,124.2,19.312
6.4674,125.038,19.412
6.5006,125.447,19.512
6.534,77.4336,19.612
6.5674,76.2828,19.712
6.6011,75.9206,19.812
6.6343,75.9121,19.912
6.6677,76.1601,20.012
6.7009,76.3766,20.112
6.734,76.8425,20.212
6.7673,77.5155,20.312
6.8007,78.4613,20.412
6.8341,79.3061,20.512
6.8676,80.2706,20.612
6.9009,81.1493,20.712
6.9342,81.8405,20.812
6.9673,82.7267,20.912
7.0006,83.0608,21.012
7.0341,83.8546,21.112
7.0672,84.7604,21.212
7.1007,85.5081,21.312
7.1344,86.3019,21.412
7.1678,86.7214,21.512
7.2009,86.777,21.612
7.234,86.5238,21.712
7.2673,86.4048,21.812
7.3006,84.9033,21.912
7.3339,83.4225,22.012
7.3672,81.6959,22.112
7.4006,81.6743,22.212
7.4339,81.7453,22.312
7.4675,81.2647,22.412
7.5008,81.1633,22.512
7.5339,80.4445,22.612
7.5673,79.8678,22.712
7.6005,79.459,22.812
7.6338,78.9028,22.912
7.6674,79.0378,23.012
7.7008,79.1759,23.112
7.7341,79.2201,23.212
7.7673,78.9593,23.312
7.8006,78.4281,23.412
7.8338,77.675,23.512
7.8671,77.5106,23.612
7.9004,77.3694,23.712
7.9338,76.1257,23.812
7.9675,75.7142,23.912
8.001,75.33,24.012
8.0339,74.8892,24.112
8.067,74.844,24.212
8.1004,73.4111,24.312
8.1337,73.3005,24.412
8.1672,73.4296,24.512
8.2007,73.3621,24.612
8.2341,73.5484,24.712
8.2678,73.3711,24.812
8.3008,73.4673,24.912
8.3337,73.359,25.012
8.3669,73.6786,25.112
8.4003,73.7685,25.212
8.4337,73.9283,25.312
8.4674,74.3482,25.412
8.5007,74.7591,25.512
8.534,74.6954,25.612
8.5673,74.8773,25.712
8.6006,75.4722,25.812
8.6338,75.668,25.912
8.6671,75.9995,26.012
8.7004,76.3549,26.112
8.7339,76.8848,26.212
8.7673,77.0001,26.312
8.8008,77.2328,26.412
8.8341,77.1775,26.512
8.8672,77.3688,26.612
8.9004,77.948,26.712
8.9337,78.017,26.812
8.967,78.0497,26.912
9.0007,78.3423,27.012
9.034,78.4963,27.112
9.0673,78.827,27.212
9.1005,79.2781,27.312
9.1336,79.4875,27.412
9.1669,80.1534,27.512
9.2004,80.8475,27.612
9.2337,81.3479,27.712
9.2672,81.7652,27.812
9.3005,82.0858,27.912
9.3338,82.3622,28.012
9.3669,82.4046,28.112
9.4003,82.3955,28.212
9.4337,81.8923,28.312
9.467,81.8014,28.412
9.5004,82.0835,28.512
9.5341,82.1963,28.612
9.5675,82.6388,28.712
9.6007,82.9519,28.812
9.6338,83.1473,28.912
9.6671,83.8655,29.012
9.7005,84.1687,29.112
9.7338,84.5251,29.212
9.7671,85.0613,29.312
9.8005,85.5134,29.412
9.8339,85.8704,29.512
9.8674,86.2843,29.612
9.9007,86.6924,29.712
9.9339,87.1444,29.812
9.9672,88.0092,29.912
10.0004,87.8289,30.012
10.0339,88.3432,30.112
10.0675,88.5478,30.212
10.1008,88.5696,30.312
10.1342,88.5695,30.412
10.1674,88.712,30.512
10.2007,88.7373,30.612
10.234,88.8504,30.712
10.2672,88.3684,30.812
10.3005,88.1687,30.912
10.334,86.9006,31.012
10.3677,82.9634,31.112
10.4011,81.8464,31.212
10.434,81.6641,31.312
10.4672,81.6333,31.412
10.5007,81.4054,31.512
10.5339,81.5899,31.612
10.5674,81.9514,31.712
10.6009,81.6732,31.812
10.6345,81.1734,31.912
10.6679,80.5397,32.012
10.7009,79.7928,32.112
10.7338,79.2401,32.212
10.7673,78.7136,32.312
10.8006,78.2731,32.412
10.834,77.856,32.512
10.8675,76.1205,32.612
10.9009,73.5407,32.712
10.9343,65.6946,32.812
10.9676,62.9492,32.912
11.0008,61.8552,33.012
11.0341,60.8591,33.112
11.0674,60.6738,33.212
11.1007,60.2483,33.312
11.1341,60.0361,33.412
11.1676,59.8715,33.512
11.2011,60.158,33.612
11.2344,60.4842,33.712
11.2675,60.3952,33.812
11.3007,60.5885,33.912
11.334,60.9829,34.012
11.3673,61.0338,34.112
11.401,55.5469,34.212
11.4343,53.9494,34.312
11.4676,53.6415,34.412
11.5008,53.5864,34.512
11.5339,53.4763,34.612
11.5673,53.3404,34.712
11.6008,53.3479,34.812
11.634,52.9279,34.912
11.6675,52.6534,35.012
11.7009,52.4714,35.112
11.7341,52.2942,35.212
11.7672,52.3243,35.312
11.8006,52.2413,35.412
11.834,52.3758,35.512
11.8673,52.3941,35.612
11.9007,52.2229,35.712
11.9343,52.3039,35.812
11.9677,52.1347,35.912
12.0009,51.9629,36.012
12.034,51.7616,36.112
12.0673,50.8214,36.212
12.1006,50.441,36.312
12.1339,50.4528,36.412
12.1672,50.6412,36.512
12.2005,50.6228,36.612
12.234,50.7084,36.712
12.2675,50.3172,36.812
12.3008,50.0603,36.912
12.3339,50.0912,37.012
12.3672,49.853,37.112
12.4005,49.8353,37.212
12.4339,48.6978,37.312
12.4674,48.1235,37.412
12.5008,47.8354,37.512
12.5341,47.1775,37.612
12.5673,46.9255,37.712
12.6006,46.9516,37.812
12.634,46.9615,37.912
12.667,46.8119,38.012
12.7004,46.4087,38.112
12.7338,44.8776,38.212
12.7677,44.7185,38.312
12.801,44.409,38.412
12.8338,44.3387,38.512
12.8671,44.4473,38.612
12.9005,44.4812,38.712
12.9338,44.5713,38.812
12.9672,44.6683,38.912
13.0007,44.8342,39.012
13.0343,44.5288,39.112
13.0677,44.4248,39.212
13.1005,44.2177,39.312
13.1335,43.9575,39.412
13.167,44.3612,39.512
13.2004,44.3047,39.612
13.2337,44.6781,39.712
13.2672,44.3009,39.812
13.3007,43.9712,39.912
13.334,43.7655,40.012
13.3673,43.6779,40.112
13.4005,43.7673,40.212
13.4338,45.7461,40.312
13.4671,43.5365,40.412
13.5003,42.7372,40.512
13.5337,41.5859,40.612
13.5673,41.1723,40.712
13.6008,41.3169,40.812
13.634,41.0848,40.912
13.6672,40.8966,41.012
13.7004,40.4434,41.112
13.7337,40.1904,41.212
13.7671,40.1835,41.312