File: Data/Selected_data/SSP_2024-10-27_C2_OPER_TestRun1.csv
Crossheadmm,LoadN,Timesec
0.0598,0.0501761,0.214
0.0934,0.0147606,0.314
0.1271,0.0815852,0.414
0.1605,0.168155,0.514
0.1938,0.0435704,0.614
0.2269,0.109228,0.714
0.2601,0.0611239,0.814
0.2937,0.0964557,0.914
0.3271,0.231551,1.014
0.3603,0.226191,1.114
0.3936,0.140701,1.214
0.427,0.0609176,1.314
0.4603,0.115871,1.414
0.4937,0.0925583,1.514
0.5271,0.181559,1.614
0.5605,0.215138,1.714
0.5938,0.195902,1.814
0.6271,0.215032,1.914
0.6606,0.237831,2.014
0.6938,0.220212,2.114
0.7271,0.229544,2.214
0.7603,0.133875,2.314
0.7934,0.239356,2.414
0.827,0.219577,2.514
0.8605,0.268734,2.614
0.8937,0.35655,2.714
0.927,0.311155,2.814
0.9602,0.381778,2.914
0.9935,0.296016,3.014
1.0266,0.411096,3.114
1.06,0.337074,3.214
1.0936,0.358653,3.314
1.127,0.528521,3.414
1.1603,0.394265,3.514
1.1938,0.492083,3.614
1.227,0.482491,3.714
1.2603,0.666257,3.814
1.2935,0.475571,3.914
1.3268,0.516127,4.014
1.3604,0.456558,4.114
1.3939,0.546643,4.214
1.4271,0.591984,4.314
1.4599,0.663412,4.414
1.4932,0.663638,4.514
1.5268,0.649969,4.614
1.56,0.614496,4.714
1.5933,0.789448,4.814
1.6268,0.7054,4.914
1.6602,0.766466,5.014
1.6937,0.672378,5.114
1.727,0.859679,5.214
1.7602,0.730869,5.314
1.7934,0.994882,5.414
1.8267,1.00697,5.514
1.86,0.962698,5.614
1.8935,0.911115,5.714
1.9266,0.940698,5.814
1.96,0.866154,5.914
1.9933,1.03454,6.014
2.0268,1.09137,6.114
2.0601,1.1631,6.214
2.0931,1.13287,6.314
2.1264,1.1833,6.414
2.16,1.13117,6.514
2.1934,1.30985,6.614
2.2269,1.45409,6.714
2.2601,1.5403,6.814
2.2934,1.40046,6.914
2.3269,1.54842,7.014
2.3602,1.55281,7.114
2.3935,1.46259,7.214
2.4268,1.47478,7.314
2.4598,1.69883,7.414
2.4932,1.67835,7.514
2.5268,1.70881,7.614
2.5602,1.7792,7.714
2.5935,1.84969,7.814
2.6266,1.78894,7.914
2.6598,1.84943,8.014
2.6934,2.00206,8.114
2.7268,1.9091,8.214
2.7601,2.16665,8.314
2.7934,2.11901,8.414
2.8268,2.18046,8.514
2.8601,2.3494,8.614
2.8934,2.41901,8.714
2.9267,2.27881,8.814
2.9601,2.56129,8.914
2.9935,2.56101,9.014
3.0268,2.49208,9.114
3.0603,2.54141,9.214
3.0935,2.65979,9.314
3.1268,2.84403,9.414
3.16,2.78605,9.514
3.1932,2.83915,9.614
3.2269,2.8813,9.714
3.2603,3.0224,9.814
3.2936,3.08836,9.914
3.3269,3.25427,10.014
3.3601,3.35158,10.114
3.3934,3.44754,10.214
3.4266,3.4342,10.314
3.46,3.72493,10.414
3.4935,3.73726,10.514
3.5269,3.72133,10.614
3.5604,3.68997,10.714
3.5937,3.93723,10.814
3.627,4.0055,10.914
3.6603,4.09123,11.014
3.6936,4.04522,11.114
3.7269,4.22256,11.214
3.7604,4.18759,11.314
3.7939,4.58769,11.414
3.8271,4.4869,11.514
3.86,4.95977,11.614
3.8934,4.73701,11.714
3.927,4.87022,11.814
3.9602,4.80167,11.914
3.9935,5.01615,12.014
4.0269,5.28635,12.114
4.0603,5.25431,12.214
4.0937,5.34183,12.314
4.1271,5.49869,12.414
4.1604,5.69504,12.514
4.1937,5.86582,12.614
4.2269,6.00652,12.714
4.2602,6.04737,12.814
4.2937,6.24678,12.914
4.327,6.27818,13.014
4.3602,6.4127,13.114
4.3937,6.57464,13.214
4.4272,6.65936,13.314
4.4604,6.77951,13.414
4.4935,7.00745,13.514
4.5268,7.18263,13.614
4.5602,7.15493,13.714
4.5939,7.43692,13.814
4.6272,7.48413,13.914
4.6605,7.68309,14.014
4.6938,7.78174,14.114
4.7273,7.74756,14.214
4.7606,7.87552,14.314
4.7939,8.03008,14.414
4.8271,8.25226,14.514
4.8601,8.39712,14.614
4.8936,8.53646,14.714
4.9271,8.55265,14.814
4.9605,8.74723,14.914
4.9938,8.84865,15.014
5.0269,8.97929,15.114
5.0601,9.19712,15.214
5.0936,9.31272,15.314
5.1271,9.48495,15.414
5.1604,9.693,15.514
5.1936,9.64487,15.614
5.227,9.83742,15.714
5.2603,10.0476,15.814
5.2937,10.1311,15.914
5.3269,10.3372,16.014
5.3603,10.48,16.114
5.3937,10.4571,16.214
5.4271,10.6697,16.314
5.4604,10.6736,16.414
5.4936,10.8908,16.514
5.5269,11.2945,16.614
5.5601,11.2672,16.714
5.5932,11.4508,16.814
5.6268,11.6865,16.914
5.6603,11.8469,17.014
5.6935,12.0257,17.114
5.7268,12.2498,17.214
5.76,12.1217,17.314
5.7933,12.4451,17.414
5.8265,12.4553,17.514
5.8599,12.5886,17.614
5.8933,12.8895,17.714
5.9268,13.119,17.814
5.9602,13.2189,17.914
5.9935,13.4726,18.014
6.0268,13.4515,18.114
6.0601,13.7684,18.214
6.0932,13.8092,18.314
6.1266,13.8805,18.414
6.1601,14.1408,18.514
6.1937,14.3582,18.614
6.2267,14.4965,18.714
6.2597,14.6212,18.814
6.2932,14.8226,18.914
6.3267,15.1251,19.014
6.3598,15.0847,19.114
6.3932,15.5102,19.214
6.4266,15.5273,19.314
6.4601,15.8587,19.414
6.4935,15.9125,19.514
6.5268,16.0593,19.614
6.5601,16.1306,19.714
6.5934,16.2905,19.814
6.6266,16.4387,19.914
6.6599,16.7797,20.014
6.6934,16.8931,20.114
6.7267,17.0713,20.214
6.7599,17.142,20.314
6.7934,17.2498,20.414
6.8269,17.7179,20.514
6.86,17.6992,20.614
6.8932,17.7919,20.714
6.9265,17.9076,20.814
6.9599,18.058,20.914
6.9936,18.2328,21.014
7.0269,18.3279,21.114
7.0601,18.3564,21.214
7.0935,18.634,21.314
7.127,18.6226,21.414
7.1604,18.7936,21.514
7.1936,18.9391,21.614
7.2267,18.8204,21.714
7.2599,19.1598,21.814
7.2934,19.2708,21.914
7.327,19.3747,22.014
7.3603,19.6226,22.114
7.3935,19.9698,22.214
7.4267,20.0751,22.314
7.46,20.3308,22.414
7.4934,20.4882,22.514
7.5269,20.6646,22.614
7.5602,20.698,22.714
7.5935,20.8534,22.814
7.6269,21.2362,22.914
7.6603,21.5005,23.014
7.6936,21.3537,23.114
7.7268,21.5569,23.214
7.7601,21.865,23.314
7.7936,21.5567,23.414
7.827,22.059,23.514
7.8603,22.225,23.614
7.8936,22.3966,23.714
7.9269,22.5756,23.814
7.9601,22.5969,23.914
7.9934,22.6735,24.014
8.0269,22.8938,24.114
8.0603,22.8004,24.214
8.0936,22.9909,24.314
8.1269,23.0159,24.414
8.1602,22.9902,24.514
8.1934,23.1403,24.614
8.2267,23.2367,24.714
8.2601,23.5239,24.814
8.2934,23.6206,24.914
8.3269,23.7542,25.014
8.3604,24.0706,25.114
8.3937,24.0624,25.214
8.427,24.2499,25.314
8.4603,24.4161,25.414
8.4936,24.5934,25.514
8.5269,24.925,25.614
8.5605,25.1906,25.714
8.5939,25.359,25.814
8.6269,25.57,25.914
8.6599,25.798,26.014
8.6936,25.7948,26.114
8.727,26.0039,26.214
8.7603,26.2765,26.314
8.7936,26.2933,26.414
8.8269,26.6253,26.514
8.8604,26.8275,26.614
8.8938,26.9904,26.714
8.9272,27.231,26.814
8.9605,27.3108,26.914
8.9938,27.624,27.014
9.0271,27.6399,27.114
9.0603,27.9995,27.214
9.0937,28.1565,27.314
9.127,28.3784,27.414
9.1602,28.4532,27.514
9.1937,28.9677,27.614
9.2272,28.9067,27.714
9.2604,29.1321,27.814
9.2935,29.2736,27.914
9.3268,29.3863,28.014
9.3601,29.6973,28.114
9.3939,29.7013,28.214
9.4271,29.9258,28.314
9.4603,30.3126,28.414
9.4938,30.2803,28.514
9.5272,30.4684,28.614
9.5606,30.5008,28.714
9.5938,30.6606,28.814
9.6267,30.7889,28.914
9.66,30.8165,29.014
9.6936,30.966,29.114
9.7271,30.9842,29.214
9.7604,31.1195,29.314
9.7936,31.1612,29.414
9.8268,31.0522,29.514
9.8601,30.7022,29.614
9.8934,30.0189,29.714
9.9269,29.4919,29.814
9.9602,29.4447,29.914
9.9935,28.9732,30.014
10.0269,29.5435,30.114
10.0602,29.562,30.214
10.0936,29.8997,30.314
10.1268,30.0075,30.414
10.1601,30.1922,30.514
10.1935,30.4021,30.614
10.227,30.5851,30.714
10.2602,31.035,30.814
10.2936,31.2003,30.914
10.3268,31.4336,31.014
10.36,31.4972,31.114
10.3932,31.7455,31.214
10.4266,32.1543,31.314
10.4601,32.2198,31.414
10.4934,32.4029,31.514
10.5267,32.606,31.614
10.56,32.8486,31.714
10.5932,33.3753,31.814
10.6266,33.3411,31.914
10.6599,33.3813,32.014
10.6932,33.5553,32.114
10.7267,33.8005,32.214
10.7602,34.0259,32.314
10.7936,33.9969,32.414
10.8268,34.0957,32.514
10.8601,34.3199,32.614
10.8933,34.4154,32.714
10.9267,34.7551,32.814
10.9602,34.6484,32.914
10.9937,34.8053,33.014
11.0265,35.1292,33.114
11.0597,35.329,33.214
11.0934,35.5424,33.314
11.1268,35.7292,33.414
11.16,35.968,33.514
11.1934,35.9321,33.614
11.2266,36.0994,33.714
11.2601,36.4273,33.814
11.2936,36.6205,33.914
11.327,36.7042,34.014
11.3603,36.9202,34.114
11.3936,37.0354,34.214
11.4269,37.1099,34.314
11.4601,37.3146,34.414
11.4934,37.4857,34.514
11.5268,37.7589,34.614
11.5601,37.6747,34.714
11.5936,37.9751,34.814
11.6271,38.1327,34.914
11.6602,38.36,35.014
11.6934,38.4565,35.114
11.7267,38.6478,35.214
11.7601,38.787,35.314
11.7937,38.948,35.414
11.8271,39.213,35.514
11.8603,39.3033,35.614
11.8938,39.3503,35.714
11.9271,39.5048,35.814
11.9605,39.4487,35.914
11.9937,39.711,36.014
12.0265,39.899,36.114
12.06,39.8129,36.214
12.0936,39.902,36.314
12.1271,40.0356,36.414
12.1605,40.2736,36.514
12.1936,40.3461,36.614
12.2269,40.4218,36.714
12.2602,40.5742,36.814
12.2935,40.5513,36.914
12.327,40.7205,37.014
12.3603,40.8553,37.114
12.3937,41.0626,37.214
12.427,41.1499,37.314
12.4603,41.1824,37.414
12.4937,41.37,37.514
12.5269,41.2511,37.614
12.5602,41.7817,37.714
12.5936,41.686,37.814
12.6272,41.8524,37.914
12.6605,41.7342,38.014
12.6938,41.9807,38.114
12.727,42.1319,38.214
12.7602,42.2804,38.314
12.7935,42.1865,38.414
12.827,42.4113,38.514
12.8604,42.4466,38.614
12.8937,42.7972,38.714
12.9269,42.8509,38.814
12.9602,42.8988,38.914
12.9934,43.0938,39.014
13.0269,43.3578,39.114
13.0603,43.3591,39.214
13.0935,43.4983,39.314
13.127,43.6151,39.414
13.1605,43.7267,39.514
13.1938,43.858,39.614
13.2271,43.9905,39.714
13.2603,44.2039,39.814
13.2937,44.2726,39.914
13.3269,44.3593,40.014
13.3605,44.5056,40.114
13.3938,44.6734,40.214
13.4267,44.7306,40.314
13.4599,44.7715,40.414
13.4936,45.1545,40.514
13.5269,45.1107,40.614
13.5602,44.9724,40.714
13.5936,45.0152,40.814
13.6268,45.2099,40.914
13.6603,45.3588,41.014
13.6938,45.2295,41.114
13.7271,45.1002,41.214
13.7604,45.266,41.314
13.7936,45.2594,41.414
13.827,44.9867,41.514
13.8602,44.705,41.614
13.8934,44.033,41.714
13.9267,43.426,41.814
13.9601,42.9428,41.914
13.9937,42.4893,42.014
14.0271,42.3205,42.114
14.0601,42.1255,42.214
14.0934,42.1398,42.314
14.1267,42.1602,42.414
14.16,42.4638,42.514
14.1936,43.114,42.614
14.227,43.0408,42.714
14.2602,43.4995,42.814
14.2937,43.7362,42.914
14.3271,43.9591,43.014
14.3605,44.1018,43.114
14.3936,44.7946,43.214
14.4264,44.4319,43.314
14.4598,44.9894,43.414
14.4935,45.3511,43.514
14.5269,45.2936,43.614
14.5603,45.2794,43.714
14.5934,45.6567,43.814
14.6267,45.8475,43.914
14.6599,46.4857,44.014
14.6932,46.3495,44.114
14.7267,46.7221,44.214
14.7601,46.7331,44.314
14.7934,46.9617,44.414
14.8268,46.9438,44.514
14.8601,47.0734,44.614
14.8934,47.3657,44.714
14.9266,47.4518,44.814
14.9599,47.6915,44.914
14.9933,47.8212,45.014
15.0269,47.9262,45.114
15.0601,48.214,45.214
15.0935,48.2545,45.314
15.1267,48.4859,45.414
15.1599,48.5077,45.514
15.1932,48.6622,45.614
15.2267,48.8885,45.714
15.26,49.141,45.814
15.2934,49.3054,45.914
15.3266,49.3791,46.014
15.3601,49.6918,46.114
15.3932,49.7372,46.214
15.4266,49.9396,46.314
15.46,49.9554,46.414
15.4933,50.0297,46.514
15.5268,50.061,46.614
15.5603,50.4151,46.714
15.5936,50.519,46.814
15.6269,50.5976,46.914
15.6602,50.7975,47.014
15.6935,50.9899,47.114
15.7268,51.1134,47.214
15.7603,51.2178,47.314
15.7936,51.2941,47.414
15.8265,51.5681,47.514
15.8598,51.5417,47.614
15.8935,51.8362,47.714
15.9269,51.9133,47.814
15.9601,52.0806,47.914
15.9934,52.1867,48.014
16.0267,52.273,48.114
16.0602,52.3777,48.214
16.0937,52.473,48.314
16.127,52.6698,48.414
16.1603,52.7975,48.514
16.1936,53.0083,48.614
16.227,53.2131,48.714
16.2602,53.2693,48.814
16.2934,53.4521,48.914
16.3267,53.6134,49.014
16.3602,53.6702,49.114
16.3938,53.8275,49.214
16.4271,53.8649,49.314
16.4602,54.0426,49.414
16.4935,53.9983,49.514
16.5268,54.2619,49.614
16.5601,54.3447,49.714
16.5936,54.6215,49.814
16.627,54.6398,49.914
16.6604,54.8439,50.014
16.6938,54.8612,50.114
16.7272,55.1896,50.214
16.7605,55.132,50.314
16.7937,55.1238,50.414
16.8266,55.4596,50.514
16.86,55.6929,50.614
16.8937,55.7315,50.714
16.9271,56.0634,50.814
16.9605,56.0327,50.914
16.9937,56.0911,51.014
17.0269,56.1151,51.114
17.0602,56.4917,51.214
17.0936,56.4404,51.314
17.1269,56.4524,51.414
17.1604,56.6182,51.514
17.1937,56.6572,51.614
17.2271,56.8636,51.714
17.2604,56.9967,51.814
17.2938,57.1352,51.914
17.3271,57.2341,52.014
17.3603,57.2546,52.114
17.3936,57.2102,52.214
17.4271,57.5053,52.314
17.4605,57.5261,52.414
17.4938,57.6205,52.514
17.5271,57.817,52.614
17.5602,57.8625,52.714
17.5936,57.9894,52.814
17.627,58.0947,52.914
17.6602,58.1171,53.014
17.6936,58.207,53.114
17.7269,58.3019,53.214
17.7602,58.3428,53.314
17.7935,58.641,53.414
17.8268,58.6154,53.514
17.8602,58.6884,53.614
17.8934,58.7671,53.714
17.9269,58.8575,53.814
17.9604,59.3562,53.914
17.9937,59.2778,54.014
18.027,59.548,54.114
18.0602,59.5621,54.214
18.0935,59.9006,54.314
18.127,59.9674,54.414
18.1605,59.9934,54.514
18.1936,60.2996,54.614
18.2265,60.4139,54.714
18.2599,60.6094,54.814
18.2936,60.7163,54.914
18.3269,60.9846,55.014
18.3602,61.0154,55.114
18.3934,61.2436,55.214
18.4267,61.277,55.314
18.4601,61.5225,55.414
18.4937,61.6471,55.514
18.527,61.8942,55.614
18.5602,61.9649,55.714
18.5935,62.0195,55.814
18.6269,62.2375,55.914
18.6602,62.6825,56.014
18.6932,62.4126,56.114
18.7265,62.5511,56.214
18.7601,62.7659,56.314
18.7937,62.8053,56.414
18.8269,62.9144,56.514
18.86,63.1807,56.614
18.8933,63.0401,56.714
18.9267,63.2945,56.814
18.96,63.1137,56.914
18.9933,63.1954,57.014
19.0268,63.1504,57.114
19.0602,63.09,57.214
19.0936,62.979,57.314
19.127,62.9622,57.414
19.1603,62.7825,57.514
19.1934,62.7189,57.614
19.2263,62.2871,57.714
19.2597,61.2254,57.814
19.2935,59.9114,57.914
19.3269,59.4945,58.014
19.3602,59.5489,58.114
19.3935,59.555,58.214
19.4267,59.9876,58.314
19.46,60.1729,58.414
19.4933,60.555,58.514
19.5266,60.7656,58.614
19.5601,61.2108,58.714
19.5934,61.7165,58.814
19.6268,62.0194,58.914
19.6602,62.1669,59.014
19.6935,62.6239,59.114
19.7268,62.9712,59.214
19.76,63.0914,59.314
19.7933,63.7354,59.414
19.8269,63.78,59.514
19.8602,64.1249,59.614
19.8935,64.5136,59.714
19.9268,64.5673,59.814
19.96,64.9308,59.914
19.9934,64.8826,60.014
20.0268,65.2691,60.114
20.06,65.4451,60.214
20.0934,65.7275,60.314
20.1267,65.7671,60.414
20.1601,66.0238,60.514
20.1934,66.3022,60.614
20.2268,66.4814,60.714
20.2601,66.8041,60.814
20.2934,67.0581,60.914
20.3268,67.1486,61.014
20.3603,67.2851,61.114
20.3937,67.5048,61.214
20.427,67.9239,61.314
20.4602,67.8315,61.414
20.4936,68.0594,61.514
20.527,68.4493,61.614
20.5604,68.5552,61.714
20.5935,68.6805,61.814
20.6265,68.8972,61.914
20.6601,69.1205,62.014
20.6936,69.2319,62.114
20.7269,69.4,62.214
20.7603,69.5233,62.314
20.7936,69.7853,62.414
20.8269,69.845,62.514
20.8602,70.1098,62.614
20.8937,70.4751,62.714
20.9271,70.4409,62.814
20.9604,70.6148,62.914
20.9938,70.7484,63.014
21.0271,71.3505,63.114
21.0604,71.3391,63.214
21.0935,71.3709,63.314
21.1267,71.5301,63.414
21.1603,71.699,63.514
21.194,71.7413,63.614
21.2271,71.9685,63.714
21.2603,72.1169,63.814
21.2936,72.4319,63.914
21.327,72.5956,64.014
21.3604,72.6752,64.114
21.3937,73.0363,64.214
21.4271,73.0284,64.314
21.4605,73.2391,64.414
21.494,73.4603,64.514
21.5274,73.502,64.614
21.5607,73.6764,64.714
21.5938,73.9025,64.814
21.6267,74.0454,64.914
21.6601,74.1722,65.014
21.6937,74.1129,65.114
21.7272,74.2824,65.214
21.7605,74.6998,65.314
21.7937,74.7562,65.414
21.827,74.9828,65.514
21.8603,75.0654,65.614
21.8936,75.0037,65.714
21.9268,75.3767,65.814
21.9602,75.5534,65.914
21.9937,75.6442,66.014
22.0271,75.7738,66.114
22.0605,76.0959,66.214
22.0938,76.193,66.314
22.127,76.0817,66.414
22.1603,76.4508,66.514
22.1936,76.5333,66.614
22.227,76.8169,66.714
22.2604,76.6604,66.814
22.2937,76.7556,66.914
22.327,76.8717,67.014
22.3601,77.0043,67.114
22.3937,77.017,67.214
22.4269,77.1396,67.314
22.4601,77.1044,67.414
22.4934,77.2235,67.514
22.5268,77.252,67.614
22.5601,77.4046,67.714
22.5934,77.3013,67.814
22.6268,77.5467,67.914
22.6601,77.3148,68.014
22.6934,77.4871,68.114
22.7268,77.5334,68.214
22.7602,77.5147,68.314
22.7936,77.427,68.414
22.8269,77.195,68.514
22.8601,77.5384,68.614
22.8935,77.3483,68.714
22.927,77.6947,68.814
22.9603,77.5862,68.914
22.9931,77.7256,69.014
23.0262,77.9305,69.114
23.06,78.0352,69.214
23.0935,78.1763,69.314
23.1267,78.368,69.414
23.1601,78.5225,69.514
23.1934,78.5524,69.614
23.2265,78.873,69.714
23.2599,79.1342,69.814
23.2933,79.2373,69.914
23.3268,79.387,70.014
23.3601,79.5239,70.114
23.3934,79.797,70.214
23.4267,80.0621,70.314
23.4601,80.1442,70.414
23.4932,80.3318,70.514
23.5263,80.6303,70.614
23.5599,80.7465,70.714
23.5936,80.9851,70.814
23.6267,81.1163,70.914
23.66,81.248,71.014
23.6933,81.4428,71.114
23.7266,81.7006,71.214
23.7601,81.9155,71.314
23.7933,81.9743,71.414
23.8267,82.2204,71.514
23.8602,82.4292,71.614
23.8936,82.6311,71.714
23.9271,82.8302,71.814
23.9604,82.8818,71.914
23.9934,83.1258,72.014
24.0264,83.4451,72.114
24.0599,83.4772,72.214
24.0934,83.7568,72.314
24.1269,83.8472,72.414
24.1601,84.0678,72.514
24.1935,84.2027,72.614
24.2267,84.3201,72.714
24.2601,84.5523,72.814
24.2934,84.4746,72.914
24.3266,84.9147,73.014
24.36,84.8039,73.114
24.3935,85.0985,73.214
24.4269,85.0935,73.314
24.4602,85.43,73.414
24.4935,85.5073,73.514
24.5269,85.541,73.614
24.5601,85.7313,73.714
24.5935,85.7262,73.814
24.6268,85.9269,73.914
24.6602,85.9292,74.014
24.6935,85.9764,74.114
24.7268,86.0078,74.214
24.7601,86.1876,74.314
24.7935,86.1225,74.414
24.8268,86.0904,74.514
24.86,86.2757,74.614
24.8934,86.4175,74.714
24.9268,86.5701,74.814
24.9601,86.5958,74.914
24.9935,86.9041,75.014
25.027,86.8987,75.114
25.0601,87.0043,75.214
25.0935,87.0832,75.314
25.1269,87.3077,75.414
25.1603,87.4218,75.514
25.1937,87.5613,75.614
25.227,87.6564,75.714
25.2603,87.7981,75.814
25.2937,88.1356,75.914
25.3272,88.1538,76.014
25.3605,88.4096,76.114
25.3933,88.5495,76.214
25.4263,88.7219,76.314
25.4601,89.0309,76.414
25.4937,88.9831,76.514
25.5269,89.2899,76.614
25.5604,89.3632,76.714
25.5936,89.5155,76.814
25.6269,89.6245,76.914
25.6603,89.8842,77.014
25.6936,90.1528,77.114
25.7271,90.5466,77.214
25.7604,90.4163,77.314
25.7937,90.5641,77.414
25.827,90.7744,77.514
25.8604,90.884,77.614
25.8935,91.33,77.714
25.9267,91.2231,77.814
25.9602,91.5956,77.914
25.9939,91.6322,78.014
26.027,91.9461,78.114
26.0602,91.9725,78.214
26.0936,92.1188,78.314
26.127,92.2932,78.414
26.1604,92.4643,78.514
26.1936,92.5675,78.614
26.2268,92.6651,78.714
26.2604,92.9142,78.814
26.2938,93.1306,78.914
26.3273,93.314,79.014
26.3605,93.4992,79.114
26.3934,93.5868,79.214
26.4266,93.6681,79.314
26.4601,93.7055,79.414
26.4936,94.0169,79.514
26.527,94.1823,79.614
26.5603,94.1336,79.714
26.5936,94.3634,79.814
26.6269,94.5582,79.914
26.6602,94.6661,80.014
26.6935,94.8251,80.114
26.7267,94.9042,80.214
26.76,95.0424,80.314
26.7935,95.1452,80.414
26.8269,95.1446,80.514
26.8603,95.2261,80.614
26.8936,95.4055,80.714
26.9269,95.5224,80.814
26.9602,95.4431,80.914
26.9935,95.5642,81.014
27.0267,95.4535,81.114
27.0602,95.5928,81.214
27.0935,95.5159,81.314
27.1267,95.423,81.414
27.16,95.4039,81.514
27.1934,95.6526,81.614
27.2267,95.4618,81.714
27.2598,95.4664,81.814
27.2931,95.4228,81.914
27.3266,95.3739,82.014
27.3598,94.9593,82.114
27.3933,94.8407,82.214
27.4267,95.0018,82.314
27.46,94.899,82.414
27.4933,95.054,82.514
27.5266,95.1754,82.614
27.56,95.2043,82.714
27.5935,95.5096,82.814
27.6267,95.8149,82.914
27.66,95.9797,83.014
27.6934,96.312,83.114
27.7269,96.3758,83.214
27.7602,96.7769,83.314
27.7929,97.0503,83.414
27.8261,97.1028,83.514
27.8599,97.4799,83.614
27.8934,97.6721,83.714
27.9267,97.9823,83.814
27.9601,98.2182,83.914
27.9933,98.4137,84.014
28.0266,98.7054,84.114
28.06,98.919,84.214
28.0933,99.0069,84.314
28.1268,99.5322,84.414
28.1601,99.6298,84.514
28.1935,99.886,84.614
28.2268,100.016,84.714
28.26,100.295,84.814
28.2932,100.619,84.914
28.3264,100.604,85.014
28.36,100.892,85.114
28.3936,101.122,85.214
28.4267,101.303,85.314
28.46,101.585,85.414
28.4934,101.677,85.514
28.5267,102.007,85.614
28.5603,102.221,85.714
28.5934,102.246,85.814
28.6266,102.468,85.914
28.6602,102.639,86.014
28.6937,102.922,86.114
28.7271,102.978,86.214
28.7604,103.347,86.314
28.7932,103.535,86.414
28.8266,103.596,86.514
28.86,103.832,86.614
28.8934,104.013,86.714
28.9269,104.151,86.814
28.9601,104.302,86.914
28.9935,104.552,87.014
29.0268,104.684,87.114
29.0602,104.948,87.214
29.0935,105.009,87.314
29.1267,105.08,87.414
29.1601,105.386,87.514
29.1936,105.541,87.614
29.227,105.66,87.714
29.2604,105.913,87.814
29.2937,106.002,87.914
29.327,105.942,88.014
29.3602,106.307,88.114
29.3937,106.519,88.214
29.4269,106.67,88.314
29.4603,106.672,88.414
29.4936,106.862,88.514
29.5268,107.116,88.614
29.5602,107.189,88.714
29.5937,107.284,88.814
29.627,107.455,88.914
29.6602,107.473,89.014
29.6933,107.816,89.114
29.7268,107.792,89.214
29.7601,107.776,89.314
29.7936,108.082,89.414
29.827,108.106,89.514
29.8603,108.176,89.614
29.8937,108.318,89.714
29.927,108.472,89.814
29.9603,108.559,89.914
29.9937,108.531,90.014
30.027,108.495,90.114
30.0603,108.697,90.214
30.0938,108.912,90.314
30.1273,108.882,90.414
30.1605,108.831,90.514
30.1933,109.07,90.614
30.2265,109.014,90.714
30.2602,109.16,90.814
30.2937,109.321,90.914
30.327,109.137,91.014
30.3603,109.24,91.114
30.3936,109.174,91.214
30.427,109.128,91.314
30.4604,109.315,91.414
30.4936,109.091,91.514
30.527,108.947,91.614
30.5604,108.945,91.714
30.5938,108.935,91.814
30.6271,108.912,91.914
30.6602,108.849,92.014
30.6935,108.93,92.114
30.7267,108.596,92.214
30.7602,108.815,92.314
30.7937,108.751,92.414
30.8268,108.982,92.514
30.8601,108.442,92.614
30.8935,108.993,92.714
30.9268,108.928,92.814
30.9603,108.369,92.914
30.9935,107.725,93.014
31.0267,106.855,93.114
31.0602,105.202,93.214
31.0937,103.725,93.314
31.1271,102.431,93.414
31.1603,101.229,93.514
31.1932,100.19,93.614
31.2265,99.3017,93.714
31.26,98.7024,93.814
31.2934,96.6465,93.914
31.3268,87.9475,94.014
31.3601,83.9616,94.114
31.3934,81.335,94.214
31.4267,81.0135,94.314
31.4601,81.229,94.414
31.4934,81.6629,94.514
31.5265,82.3744,94.614
31.5599,82.9585,94.714
31.5933,83.651,94.814
31.6268,84.2243,94.914
31.6602,84.9809,95.014
31.6934,85.7186,95.114
31.7267,86.6427,95.214
31.7601,87.2044,95.314
31.7934,88.3979,95.414
31.8266,88.5401,95.514
31.86,88.9232,95.614
31.8935,90.4049,95.714
31.9265,90.3725,95.814
31.96,91.2397,95.914
31.9935,91.7748,96.014
32.0268,92.1504,96.114
32.0599,92.7285,96.214
32.0931,93.5691,96.314
32.1266,94.1671,96.414
32.1599,95.0554,96.514
32.1933,95.3079,96.614
32.2268,96.1928,96.714
32.2601,96.445,96.814
32.2935,96.7948,96.914
32.3267,97.4307,97.014
32.3601,97.4825,97.114
32.3934,98.0961,97.214
32.4268,98.2727,97.314
32.4601,98.9018,97.414
32.4936,99.1115,97.514
32.527,99.8315,97.614
32.5602,99.51,97.714
32.593,100.415,97.814
32.6262,100.745,97.914
32.6599,101.077,98.014
32.6934,101.515,98.114
32.7267,101.871,98.214
32.76,102.202,98.314
32.7934,102.195,98.414
32.8267,102.511,98.514
32.86,103.389,98.614
32.8933,103.712,98.714
32.9267,104.244,98.814
32.9601,104.513,98.914
32.9935,104.881,99.014
33.0269,105.502,99.114
33.06,105.135,99.214
33.0933,106.052,99.314
33.1266,106.201,99.414
33.1601,106.365,99.514
33.1935,106.992,99.614
33.2267,107.338,99.714
33.2601,107.584,99.814
33.2936,107.95,99.914
33.3269,108.395,100.014
33.3603,108.538,100.114
33.3936,109.001,100.214
33.4268,109.188,100.314
33.4603,109.667,100.414
33.4939,110.011,100.514
33.5273,110.213,100.614
33.5605,110.645,100.714
33.5934,110.906,100.814
33.6267,110.982,100.914
33.6602,111.37,101.014
33.6936,111.604,101.114
33.7269,112.138,101.214
33.7603,112.336,101.314
33.7936,112.647,101.414
33.827,112.891,101.514
33.8603,113.198,101.614
33.8936,113.493,101.714
33.9269,113.656,101.814
33.9602,114.092,101.914
33.9936,114.231,102.014
34.027,114.48,102.114
34.0605,114.798,102.214
34.0937,115.038,102.314
34.1271,115.067,102.414
34.1603,115.297,102.514
34.1937,115.713,102.614
34.2269,115.854,102.714
34.2603,116.095,102.814
34.2937,116.519,102.914
34.3269,116.469,103.014
34.3603,116.835,103.114
34.3937,116.891,103.214
34.4269,117.073,103.314
34.4603,117.344,103.414
34.4934,117.489,103.514
34.5267,117.761,103.614
34.5601,117.904,103.714
34.5935,118.136,103.814
34.627,118.208,103.914
34.6603,118.455,104.014
34.6936,118.544,104.114
34.727,118.848,104.214
34.7602,119.047,104.314
34.7935,119.253,104.414
34.8269,119.437,104.514
34.8603,119.661,104.614
34.8938,119.796,104.714
34.9272,119.903,104.814
34.9603,120.09,104.914
34.9931,120.267,105.014
35.0265,120.346,105.114
35.0601,120.781,105.214
35.0935,120.562,105.314
35.1269,121.02,105.414
35.1602,121.058,105.514
35.1935,121.338,105.614
35.2269,121.491,105.714
35.2602,121.426,105.814
35.2934,121.784,105.914
35.3267,121.951,106.014
35.3602,122.123,106.114
35.3935,122.251,106.214
35.4269,122.386,106.314
35.46,122.559,106.414
35.4932,122.643,106.514
35.5266,122.882,106.614
35.5601,122.974,106.714
35.5933,123.127,106.814
35.6266,123.143,106.914
35.66,123.395,107.014
35.6934,123.43,107.114
35.7268,123.821,107.214
35.7601,123.691,107.314
35.7934,123.826,107.414
35.8266,124.02,107.514
35.86,124.159,107.614
35.8936,124.49,107.714
35.927,124.564,107.814
35.9602,124.818,107.914
35.9931,124.971,108.014
36.0265,125.151,108.114
36.0601,125.089,108.214
36.0933,125.569,108.314
36.1266,125.876,108.414
36.16,125.528,108.514
36.1933,125.573,108.614
36.2267,126.153,108.714
36.2601,126.293,108.814
36.2934,126.539,108.914
36.3266,126.238,109.014
36.3599,126.505,109.114
36.3932,126.5,109.214
36.4268,127.161,109.314
36.4602,127.119,109.414
36.4934,127.245,109.514
36.5268,127.564,109.614
36.5601,127.624,109.714
36.5934,127.791,109.814
36.6266,127.869,109.914
36.6599,128.055,110.014
36.6934,128.116,110.114
36.7266,128.204,110.214
36.7601,128.282,110.314
36.7934,128.692,110.414
36.8267,128.84,110.514
36.8599,128.877,110.614
36.8931,129.138,110.714
36.9264,129.2,110.814
36.9599,129.293,110.914
36.9933,129.541,111.014
37.0267,129.616,111.114
37.06,129.851,111.214
37.0934,129.958,111.314
37.1268,130.232,111.414
37.1601,130.542,111.514
37.1933,130.68,111.614
37.2267,130.594,111.714
37.2602,130.951,111.814
37.2937,131.203,111.914
37.3271,131.189,112.014
37.3601,131.302,112.114
37.393,131.652,112.214
37.4265,131.536,112.314
37.46,131.864,112.414
37.4934,132.369,112.514
37.5268,132.223,112.614
37.5601,132.447,112.714
37.5935,132.747,112.814
37.6268,132.837,112.914
37.6602,132.554,113.014
37.6935,132.633,113.114
37.7268,133.604,113.214
37.7602,133.229,113.314
37.7936,134.186,113.414
37.827,134.001,113.514
37.8602,134.016,113.614
37.8934,134.094,113.714
37.9268,134.423,113.814
37.9604,134.478,113.914
37.9935,134.6,114.014
38.0268,134.669,114.114
38.0602,134.832,114.214
38.0936,135.283,114.314
38.1271,135.417,114.414
38.1604,135.372,114.514
38.1937,135.632,114.614
38.227,135.719,114.714
38.2603,135.948,114.814
38.2939,136.031,114.914
38.3273,136.392,115.014
38.3604,136.479,115.114
38.3934,136.497,115.214
38.4269,136.764,115.314
38.4604,136.664,115.414
38.4937,137.226,115.514
38.5269,137.113,115.614
38.5602,137.295,115.714
38.5937,137.393,115.814
38.6271,137.31,115.914
38.6604,137.562,116.014
38.6937,137.735,116.114
38.7269,137.867,116.214
38.7603,138.109,116.314
38.7936,138.276,116.414
38.8271,138.279,116.514
38.8605,138.634,116.614
38.8938,138.799,116.714
38.9271,138.728,116.814
38.9604,138.975,116.914
38.9938,139.255,117.014
39.0269,139.238,117.114
39.0602,139.27,117.214
39.0935,139.349,117.314
39.1269,139.351,117.414
39.1604,139.634,117.514
39.1937,139.655,117.614
39.2269,139.92,117.714
39.2602,139.892,117.814
39.2933,140.163,117.914
39.3265,140.56,118.014
39.3599,140.84,118.114
39.3936,140.895,118.214
39.4268,141.161,118.314
39.4601,141.154,118.414
39.4935,141.115,118.514
39.5269,141.464,118.614
39.5601,141.684,118.714
39.5933,141.877,118.814
39.6266,142.07,118.914
39.6601,141.764,119.014
39.6936,142.402,119.114
39.727,142.354,119.214
39.7599,142.498,119.314
39.7929,142.713,119.414
39.8264,142.956,119.514
39.8599,142.841,119.614
39.8932,142.832,119.714
39.9267,143.03,119.814
39.96,143.048,119.914
39.9933,143.165,120.014
40.0267,143.427,120.114
40.0601,143.419,120.214
40.0933,143.653,120.314
40.1266,143.698,120.414
40.16,143.876,120.514
40.1934,144.059,120.614
40.2268,144.688,120.714
40.2599,144.577,120.814
40.2931,144.821,120.914
40.3266,144.869,121.014
40.3601,144.762,121.114
40.3932,145.048,121.214
40.4265,145.181,121.314
40.4599,145.432,121.414
40.4934,145.311,121.514
40.5269,145.69,121.614
40.5601,145.992,121.714
40.5933,145.904,121.814
40.6267,146.119,121.914
40.6601,146.54,122.014
40.6936,146.52,122.114
40.727,146.214,122.214
40.76,146.343,122.314
40.7931,147.007,122.414
40.8266,147.236,122.514
40.8601,147.185,122.614
40.8933,147.518,122.714
40.9265,147.531,122.814
40.9599,147.67,122.914
40.9934,147.927,123.014
41.0267,148.051,123.114
41.0601,148.146,123.214
41.0934,148.303,123.314
41.1267,148.394,123.414
41.1599,148.314,123.514
41.1933,148.71,123.614
41.2267,148.904,123.714
41.2601,148.854,123.814
41.2934,149.139,123.914
41.3268,148.987,124.014
41.3602,149.222,124.114
41.3935,149.391,124.214
41.4267,149.786,124.314
41.4599,149.651,124.414
41.4932,149.603,124.514
41.5267,150.463,124.614
41.5601,150.077,124.714
41.5935,149.853,124.814
41.6267,150.056,124.914
41.66,150.482,125.014
41.6933,150.49,125.114
41.7264,150.939,125.214
41.7599,150.613,125.314
41.7935,150.751,125.414
41.8268,150.932,125.514
41.8602,151.077,125.614
41.8937,151.094,125.714
41.9269,151.259,125.814
41.9602,151.254,125.914
41.9934,151.807,126.014
42.0268,151.662,126.114
42.0602,151.898,126.214
42.0938,152.09,126.314
42.1272,151.951,126.414
42.1601,152.331,126.514
42.1931,152.574,126.614
42.2268,152.212,126.714
42.2601,152.739,126.814
42.2935,152.916,126.914
42.327,153.101,127.014
42.3603,153.4,127.114
42.3936,153.612,127.214
42.427,153.759,127.314
42.4604,153.775,127.414
42.4937,153.97,127.514
42.5269,154.551,127.614
42.5603,154.581,127.714
42.5937,155.104,127.814
42.627,154.84,127.914
42.6603,155.144,128.014
42.6935,155.566,128.114
42.7269,155.441,128.214
42.7605,155.955,128.314
42.7935,156.296,128.414
42.8267,156.142,128.514
42.8602,156.374,128.614
42.8936,156.228,128.714
42.9272,156.677,128.814
42.9604,157.093,128.914
42.9936,156.695,129.014
43.027,157.65,129.114
43.0604,157.495,129.214
43.0938,157.614,129.314
43.1272,157.785,129.414
43.1601,158.046,129.514
43.1934,158.104,129.614
43.2269,158.26,129.714
43.2603,158.482,129.814
43.2936,158.492,129.914
43.3267,158.821,130.014
43.36,159.285,130.114
43.3935,158.792,130.214
43.4269,159.091,130.314
43.4602,159.639,130.414
43.4935,159.566,130.514
43.5268,159.768,130.614
43.5601,159.789,130.714
43.5934,159.991,130.814
43.6268,160.404,130.914
43.6602,160.907,131.014
43.6935,160.885,131.114
43.7269,160.834,131.214
43.7603,161.08,131.314
43.7935,161.325,131.414
43.8268,161.496,131.514
43.8599,161.697,131.614
43.8931,161.676,131.714
43.9267,161.512,131.814
43.9602,161.951,131.914
43.9935,161.949,132.014
44.0267,161.725,132.114
44.0599,162.678,132.214
44.0932,162.608,132.314
44.1263,162.732,132.414
44.1597,163.037,132.514
44.1933,162.459,132.614
44.2266,163.072,132.714
44.2601,162.903,132.814
44.2934,162.475,132.914
44.3267,162.616,133.014
44.36,162.598,133.114
44.3932,162.497,133.214
44.4265,163.073,133.314
44.46,162.951,133.414
44.4935,163.111,133.514
44.5269,163.463,133.614
44.5597,163.235,133.714
44.5929,163.475,133.814
44.6265,163.449,133.914
44.6599,163.621,134.014
44.6931,163.782,134.114
44.7267,163.889,134.214
44.76,163.966,134.314
44.7934,164.096,134.414
44.8267,164.343,134.514
44.8601,164.105,134.614
44.8933,164.336,134.714
44.9265,164.095,134.814
44.9598,164.087,134.914
44.9933,164.25,135.014
45.0266,164.136,135.114
45.0599,163.839,135.214
45.0932,163.994,135.314
45.1267,164.175,135.414
45.1601,164.398,135.514
45.1931,164.535,135.614
45.2264,164.679,135.714
45.2599,165.238,135.814
45.2933,165.138,135.914
45.3269,165.226,136.014
45.3602,165.122,136.114
45.3934,164.414,136.214
45.4268,164.674,136.314
45.4601,165.157,136.414
45.4935,165.267,136.514
45.5269,165.438,136.614
45.5599,166.037,136.714
45.5932,166.278,136.814
45.6268,166.163,136.914
45.6602,166.24,137.014
45.6935,166.484,137.114
45.7266,166.601,137.214
45.7599,166.548,137.314
45.7934,166.924,137.414
45.8268,166.955,137.514
45.8602,167.402,137.614
45.8935,167.278,137.714
45.9268,167.488,137.814
45.9601,167.329,137.914
45.9934,167.503,138.014
46.0268,167.33,138.114
46.0602,167.362,138.214
46.0935,167.441,138.314
46.1269,167.477,138.414
46.1604,167.869,138.514
46.1936,167.817,138.614
46.2269,167.867,138.714
46.2601,167.58,138.814
46.2932,167.352,138.914
46.3268,167.33,139.014
46.3604,167.28,139.114
46.3937,166.982,139.214
46.4269,166.605,139.314
46.4601,165.861,139.414
46.4935,161.204,139.514
46.5266,150.375,139.614
46.5602,21.8263,139.714
46.5665,1.8184,139.734