File: Data/Selected_data/SSP_2025-03-20_D14_NO.csv
Crossheadmm,LoadN,Timesec
0.0359,1.98487,0.119
0.0694,2.23152,0.219
0.1028,2.44395,0.319
0.1362,2.56928,0.419
0.1697,2.88127,0.519
0.2028,3.31146,0.619
0.236,3.4113,0.719
0.2694,3.78999,0.819
0.3028,3.91277,0.919
0.3361,4.1793,1.019
0.3694,4.42343,1.119
0.4029,4.68031,1.219
0.4363,4.97494,1.319
0.4694,5.17357,1.419
0.5026,5.46776,1.519
0.5359,5.77205,1.619
0.5693,6.03433,1.719
0.6027,6.38376,1.819
0.636,6.59273,1.919
0.6694,6.94533,2.019
0.7027,7.16189,2.119
0.7361,7.67161,2.219
0.7693,8.07076,2.319
0.8028,8.43274,2.419
0.836,8.79929,2.519
0.8693,8.96458,2.619
0.9025,9.50938,2.719
0.9358,10.1752,2.819
0.9692,10.6726,2.919
1.0027,11.1002,3.019
1.036,11.6288,3.119
1.0692,12.2,3.219
1.1024,12.9339,3.319
1.1357,13.5435,3.419
1.1688,14.1317,3.519
1.2025,14.7123,3.619
1.2359,15.4412,3.719
1.2692,16.0463,3.819
1.3025,16.9656,3.919
1.3359,17.6809,4.019
1.3692,18.3819,4.119
1.4024,19.3812,4.219
1.4357,20.28,4.319
1.4691,21.0159,4.419
1.5025,22.0074,4.519
1.5358,23.083,4.619
1.5691,24.1637,4.719
1.6024,25.1268,4.819
1.6357,26.1748,4.919
1.6691,27.0361,5.019
1.7024,28.39,5.119
1.7359,29.4499,5.219
1.7692,30.4772,5.319
1.8026,31.8855,5.419
1.836,33.0693,5.519
1.8692,34.341,5.619
1.9026,35.3859,5.719
1.936,36.7439,5.819
1.9693,37.9657,5.919
2.0026,39.3071,6.019
2.0358,40.4428,6.119
2.0691,41.6142,6.219
2.1026,42.9714,6.319
2.1358,44.1937,6.419
2.1694,45.7138,6.519
2.2028,47.143,6.619
2.2358,48.4901,6.719
2.2693,50.0374,6.819
2.3028,51.3397,6.919
2.3361,52.9387,7.019
2.3696,54.3496,7.119
2.4028,56.1593,7.219
2.436,57.5989,7.319
2.4694,59.1129,7.419
2.5028,60.7389,7.519
2.5361,62.3434,7.619
2.5695,63.9798,7.719
2.6028,65.8029,7.819
2.636,67.3929,7.919
2.6694,69.1753,8.019
2.7027,70.7682,8.119
2.7362,72.4152,8.219
2.7694,73.9978,8.319
2.8029,75.9193,8.419
2.8362,77.5042,8.519
2.8694,79.3562,8.619
2.9026,80.9785,8.719
2.936,82.833,8.819
2.9694,84.6311,8.919
3.0028,86.4265,9.019
3.0361,88.2579,9.119
3.0694,89.9311,9.219
3.1027,91.8787,9.319
3.1361,93.8001,9.419
3.1694,95.636,9.519
3.2028,97.4643,9.619
3.2361,99.2696,9.719
3.2693,101.225,9.819
3.3026,103.154,9.919
3.3358,104.936,10.019
3.3694,106.969,10.119
3.4028,108.723,10.219
3.4362,110.636,10.319
3.4695,112.267,10.419
3.5027,113.998,10.519
3.5359,115.702,10.619
3.569,117.416,10.719
3.6025,118.651,10.819
3.6361,119.938,10.919
3.6694,121.243,11.019
3.7028,122.791,11.119
3.7362,123.87,11.219
3.7695,124.247,11.319
3.8027,124.35,11.419
3.8358,125.327,11.519
3.8692,127.157,11.619
3.9027,129.42,11.719
3.936,131.529,11.819
3.9693,134.094,11.919
4.0026,136.736,12.019
4.0359,139.496,12.119
4.0692,141.951,12.219
4.1024,144.32,12.319
4.1358,146.621,12.419
4.1692,149.108,12.519
4.2026,151.551,12.619
4.2361,153.463,12.719
4.2694,154.841,12.819
4.3027,156.353,12.919
4.3361,158.145,13.019
4.3692,160.383,13.119
4.4025,162.577,13.219
4.4358,164.881,13.319
4.4691,167.173,13.419
4.5025,169.422,13.519
4.5358,171.242,13.619
4.5694,171.686,13.719
4.6027,173.651,13.819
4.6356,175.509,13.919
4.6691,177.861,14.019
4.7027,180.186,14.119
4.7359,182.285,14.219
4.7693,184.46,14.319
4.8025,185.743,14.419
4.8359,185.882,14.519
4.8693,187.891,14.619
4.9025,189.737,14.719
4.9358,191.702,14.819
4.9693,193.174,14.919
5.0025,194.861,15.019
5.0357,196.481,15.119
5.0691,197.906,15.219
5.1026,198.684,15.319
5.1359,196.239,15.419
5.1692,197.611,15.519
5.2026,199.087,15.619
5.236,199.625,15.719
5.2691,200.078,15.819
5.3024,200.1,15.919
5.3357,199.605,16.019
5.3692,194.108,16.119
5.4025,189.434,16.219
5.4358,190.703,16.319
5.469,192.006,16.419
5.5025,193.521,16.519
5.5358,185.26,16.619
5.5691,186.554,16.719
5.6025,188.126,16.819
5.6357,189.806,16.919
5.6689,190.685,17.019
5.7022,192.279,17.119
5.7353,192.395,17.219
5.7689,192.395,17.319
5.8024,193.085,17.419
5.8356,193.769,17.519
5.869,195.133,17.619
5.9021,196.582,17.719
5.9354,198.2,17.819
5.9687,198.499,17.919
6.0023,198.575,18.019
6.0358,198.016,18.119
6.0689,199.253,18.219
6.1024,200.62,18.319
6.1358,202.128,18.419
6.1691,203.446,18.519
6.2023,204.677,18.619
6.2355,205.629,18.719
6.2689,206.618,18.819
6.3024,207.497,18.919
6.3357,207.96,19.019
6.3691,208.243,19.119
6.4023,207.817,19.219
6.4358,207.262,19.319
6.4691,206.279,19.419
6.5023,198.693,19.519
6.5357,197.022,19.619
6.5692,197.38,19.719
6.6025,198.122,19.819
6.6359,198.604,19.919
6.6691,199.106,20.019
6.7026,199.399,20.119
6.7359,199.556,20.219
6.7691,199.15,20.319
6.8024,199.011,20.419
6.8358,198.342,20.519
6.8691,197.689,20.619
6.9025,196.678,20.719
6.9359,195.765,20.819
6.9695,194.459,20.919
7.0026,192.878,21.019
7.0357,191.496,21.119
7.0692,189.891,21.219
7.1027,188.977,21.319
7.1361,187.897,21.419
7.1693,186.872,21.519
7.2026,185.722,21.619
7.2361,184.64,21.719
7.2694,183.75,21.819
7.3027,183.628,21.919
7.336,183.258,22.019
7.3693,183.286,22.119
7.4026,183.409,22.219
7.4359,183.461,22.319
7.4693,183.477,22.419
7.5028,183.774,22.519
7.5361,184.205,22.619
7.5693,184.447,22.719
7.6027,184.345,22.819
7.6362,184.26,22.919
7.6693,184.525,23.019
7.7026,184.215,23.119
7.736,183.892,23.219
7.7694,183.525,23.319
7.8028,183.29,23.419
7.836,183.151,23.519
7.8693,183.299,23.619
7.9027,183.668,23.719
7.9361,184.091,23.819
7.9695,184.611,23.919
8.0029,185.003,24.019
8.0361,185.567,24.119
8.0694,186.066,24.219
8.1026,186.681,24.319
8.1358,187.503,24.419
8.1694,188.323,24.519
8.2028,188.904,24.619
8.2361,189.676,24.719
8.2695,190.253,24.819
8.3026,190.654,24.919
8.3358,191.131,25.019
8.3691,191.335,25.119
8.4026,191.657,25.219
8.4361,192.232,25.319
8.4693,192.852,25.419
8.5028,193.279,25.519
8.5362,193.783,25.619
8.5695,194.356,25.719
8.6027,194.71,25.819
8.6358,195.467,25.919
8.6692,196.307,26.019
8.7027,197.454,26.119
8.736,198.539,26.219
8.7694,199.638,26.319
8.8026,200.652,26.419
8.836,202.026,26.519
8.8694,203.362,26.619
8.9026,204.134,26.719
8.9359,204.966,26.819
8.9693,205.788,26.919
9.0027,206.807,27.019
9.0361,207.551,27.119
9.0694,208.027,27.219
9.1028,208.339,27.319
9.1362,208.274,27.419
9.1693,208.29,27.519
9.2024,208.185,27.619
9.2359,208.107,27.719
9.2692,208.173,27.819
9.3025,207.982,27.919
9.336,208.484,28.019
9.3695,208.799,28.119
9.4026,209.131,28.219
9.4356,209.197,28.319
9.4691,209.442,28.419
9.5026,209.217,28.519
9.536,208.249,28.619
9.5693,207.189,28.719
9.6026,206.196,28.819
9.636,205.165,28.919
9.6694,204.052,29.019
9.7025,202.664,29.119
9.7359,200.997,29.219
9.7692,199.36,29.319
9.8024,198.129,29.419
9.8357,197.084,29.519
9.869,196.88,29.619
9.9024,196.805,29.719
9.9358,196.591,29.819
9.969,196.591,29.919
10.0024,196.685,30.019
10.0358,196.991,30.119
10.0689,197.197,30.219
10.1023,197.648,30.319
10.1357,197.892,30.419
10.1691,198.289,30.519
10.2024,198.562,30.619
10.2356,198.958,30.719
10.2689,199.572,30.819
10.3023,200.597,30.919
10.3357,201.574,31.019
10.3692,202.636,31.119
10.4025,203.587,31.219
10.4357,204.418,31.319
10.4689,205.548,31.419
10.5022,206.508,31.519
10.5355,207.353,31.619
10.569,208.421,31.719
10.6024,209.36,31.819
10.6358,210.078,31.919
10.6692,210.831,32.019
10.7024,211.398,32.119
10.7356,211.964,32.219
10.7688,212.529,32.319
10.8024,213.073,32.419
10.8357,213.875,32.519
10.869,214.576,32.619
10.9025,215.36,32.719
10.936,216.306,32.819
10.9692,217.346,32.919
11.0024,218.41,33.019
11.0356,219.461,33.119
11.069,220.695,33.219
11.1024,221.652,33.319
11.1358,222.815,33.419
11.1691,223.972,33.519
11.2024,224.743,33.619
11.2359,225.718,33.719
11.2692,226.394,33.819
11.3024,227.175,33.919
11.3357,227.799,34.019
11.3692,228.74,34.119
11.4026,229.872,34.219
11.436,231.226,34.319
11.4693,232.439,34.419
11.5027,233.63,34.519
11.5361,234.849,34.619
11.5692,236.262,34.719
11.6023,237.895,34.819
11.6358,239.689,34.919
11.6692,241.171,35.019
11.7025,242.605,35.119
11.736,243.898,35.219
11.7696,245.062,35.319
11.8026,245.781,35.419
11.8358,246.475,35.519
11.8691,247.159,35.619
11.9026,247.77,35.719
11.9361,248.029,35.819
11.9694,247.967,35.919
12.0027,247.983,36.019
12.0362,247.848,36.119
12.0695,247.984,36.219
12.1027,248.509,36.319
12.1361,249.152,36.419
12.1693,249.427,36.519
12.2026,249.742,36.619
12.236,250.236,36.719
12.2694,250.415,36.819
12.3028,250.006,36.919
12.3362,250.195,37.019
12.3694,250.42,37.119
12.4027,250.819,37.219
12.436,251.603,37.319
12.4693,251.174,37.419
12.5026,251.101,37.519
12.5361,252.135,37.619
12.5695,252.96,37.719
12.6028,253.241,37.819
12.636,238.996,37.919
12.6693,236.403,38.019
12.7026,238.297,38.119
12.7361,240.084,38.219
12.7696,241.824,38.319
12.8029,241.867,38.419
12.8361,243.514,38.519
12.8694,244.96,38.619
12.9025,246.233,38.719
12.9358,246.558,38.819
12.9693,247.523,38.919
13.0028,248.512,39.019
13.0362,248.181,39.119
13.0695,248.483,39.219
13.1027,244.094,39.319
13.1359,194.61,39.419
13.1693,178.039,39.519
13.2027,131.078,39.619
13.2361,102.911,39.719
13.2695,64.6145,39.819
13.303,28.6657,39.919
13.3364,27.2002,40.019
13.3696,26.8746,40.119
13.4028,26.9276,40.219
13.436,26.9786,40.319
13.4693,27.2022,40.419
13.5027,27.5628,40.519
13.5361,27.8407,40.619