File: Selected_data/SSP_2025-03-18_D4_OPER.csv
Crossheadmm,LoadN,Timesec
0.0336,0.735613,0.112
0.0668,0.866151,0.212
0.1002,1.06896,0.312
0.1335,0.987139,0.412
0.1668,0.846584,0.512
0.2002,0.809154,0.612
0.2337,0.892498,0.712
0.2669,1.36966,0.812
0.3004,1.1693,0.912
0.3338,1.00058,1.012
0.367,1.26751,1.112
0.4,1.1041,1.212
0.4333,1.20563,1.312
0.4669,1.25788,1.412
0.5004,1.3787,1.512
0.5338,1.3478,1.612
0.5671,1.30559,1.712
0.6003,1.33232,1.812
0.6336,1.35684,1.912
0.6668,1.54638,2.012
0.7001,1.47506,2.112
0.7334,1.56277,2.212
0.7668,1.57587,2.312
0.8004,1.19901,2.412
0.834,1.55542,2.512
0.8671,1.3908,2.612
0.9,1.45547,2.712
0.9333,1.51963,2.812
0.9668,1.43688,2.912
1.0002,1.58479,3.012
1.0337,1.33357,3.112
1.067,1.4776,3.212
1.1006,1.54612,3.312
1.1338,1.98751,3.412
1.1668,1.81666,3.512
1.1998,2.04809,3.612
1.2332,1.69781,3.712
1.2667,1.74462,3.812
1.3002,1.40439,3.912
1.3336,1.86401,4.012
1.367,1.63629,4.112
1.4003,1.56923,4.212
1.4336,1.80488,4.312
1.4668,1.87048,4.412
1.5001,2.03507,4.512
1.5334,1.92305,4.612
1.5668,1.78054,4.712
1.6002,1.91928,4.812
1.6337,1.98162,4.912
1.667,1.81667,5.012
1.7002,2.12269,5.112
1.7334,1.5838,5.212
1.7666,1.92912,5.312
1.8001,2.29569,5.412
1.8337,1.99415,5.512
1.8671,2.08566,5.612
1.9003,2.44393,5.712
1.9335,2.43363,5.812
1.9668,2.31687,5.912
1.9999,2.03027,6.012
2.0334,2.29407,6.112
2.0669,2.44911,6.212
2.1004,2.21511,6.312
2.1337,2.88872,6.412
2.167,2.26745,6.512
2.2002,2.43355,6.612
2.2335,2.22465,6.712
2.2669,2.46632,6.812
2.3002,2.50831,6.912
2.3337,2.57436,7.012
2.3674,2.60633,7.112
2.4006,2.55874,7.212
2.4339,2.58722,7.312
2.4671,2.39539,7.412
2.5004,2.81933,7.512
2.5337,2.61178,7.612
2.567,2.61244,7.712
2.6004,2.75545,7.812
2.6338,2.92783,7.912
2.667,2.90766,8.012
2.7007,2.84987,8.112
2.734,2.96149,8.212
2.7671,2.68064,8.312
2.8003,3.03753,8.412
2.8336,3.045,8.512
2.867,3.12409,8.612
2.9006,3.26326,8.712
2.934,3.11117,8.812
2.9674,3.46203,8.912
3.0005,3.2018,9.012
3.0338,3.32589,9.112
3.0671,3.31459,9.212
3.1004,3.59835,9.312
3.1337,3.29088,9.412
3.1671,3.55608,9.512
3.2006,3.54174,9.612
3.2343,3.57691,9.712
3.2673,3.39911,9.812
3.3003,3.59132,9.912
3.3337,3.64382,10.012
3.367,3.67538,10.112
3.4005,3.81467,10.212
3.434,3.67507,10.312
3.4674,3.82173,10.412
3.501,3.8843,10.512
3.5342,4.00329,10.612
3.5671,3.97081,10.712
3.6003,4.035,10.812
3.6336,4.00894,10.912
3.667,4.1725,11.012
3.7006,4.25769,11.112
3.734,4.2585,11.212
3.7673,4.06115,11.312
3.8006,4.4385,11.412
3.8339,4.53379,11.512
3.8671,4.691,11.612
3.9004,4.52564,11.712
3.9337,4.7812,11.812
3.9672,4.7732,11.912
4.0006,4.85463,12.012
4.0341,4.99118,12.112
4.0674,4.66437,12.212
4.1005,5.32775,12.312
4.1337,5.18365,12.412
4.1669,5.27414,12.512
4.2003,5.1987,12.612
4.234,5.42142,12.712
4.2674,5.46531,12.812
4.3006,5.58924,12.912
4.3338,5.68801,13.012
4.367,5.84244,13.112
4.4003,5.68019,13.212
4.4336,5.71911,13.312
4.467,5.83595,13.412
4.5005,6.02498,13.512
4.5338,5.95354,13.612
4.567,6.21752,13.712
4.6003,6.34601,13.812
4.6335,6.52285,13.912
4.667,6.64893,14.012
4.7001,6.75819,14.112
4.7336,6.46551,14.212
4.7673,6.70687,14.312
4.8005,6.87835,14.412
4.8337,6.89985,14.512
4.867,6.77289,14.612
4.9002,7.17413,14.712
4.9336,7.23084,14.812
4.9669,7.37246,14.912
5.0002,7.46579,15.012
5.0337,7.42702,15.112
5.0669,7.74497,15.212
5.1005,7.87159,15.312
5.1339,7.97801,15.412
5.1668,7.78883,15.512
5.2001,8.20158,15.612
5.2334,7.92406,15.712
5.2668,8.15963,15.812
5.3004,8.20152,15.912
5.3337,8.46334,16.012
5.3671,8.6787,16.112
5.4002,8.45292,16.212
5.4335,8.68747,16.312
5.4668,8.74994,16.412
5.5001,9.01731,16.512
5.5333,9.02858,16.612
5.5668,8.82902,16.712
5.6003,9.17884,16.812
5.6339,9.31094,16.912
5.6669,9.51609,17.012
5.6999,9.60116,17.112
5.7334,9.60645,17.212
5.7667,10.0184,17.312
5.8002,9.99335,17.412
5.8336,10.2765,17.512
5.867,10.3806,17.612
5.9006,10.3769,17.712
5.9338,10.516,17.812
5.9667,10.7215,17.912
6,10.613,18.012
6.0333,10.7869,18.112
6.0667,10.8954,18.212
6.1002,11.3058,18.312
6.1336,11.5545,18.412
6.1669,11.6543,18.512
6.2003,11.5644,18.612
6.2336,11.8688,18.712
6.2669,11.9188,18.812
6.3001,12.1838,18.912
6.3334,12.6214,19.012
6.3669,13.0152,19.112
6.4003,12.7092,19.212
6.4338,13.0572,19.312
6.4672,12.9778,19.412
6.5002,13.1251,19.512
6.5335,13.351,19.612
6.5668,13.7174,19.712
6.6002,14.0004,19.812
6.6338,14.0125,19.912
6.6672,14.3855,20.012
6.7004,14.5285,20.112
6.7337,14.783,20.212
6.7669,15.0033,20.312
6.8002,15.5325,20.412
6.8336,15.5357,20.512
6.867,15.532,20.612
6.9004,15.689,20.712
6.9338,16.2479,20.812
6.9671,16.4188,20.912
7.0003,16.7535,21.012
7.0336,17.081,21.112
7.067,17.089,21.212
7.1003,17.3459,21.312
7.1337,17.7495,21.412
7.1673,17.9943,21.512
7.2006,18.3028,21.612
7.2339,18.5527,21.712
7.2671,18.6994,21.812
7.3003,19.1506,21.912
7.3337,19.4621,22.012
7.367,19.5172,22.112
7.4003,19.9112,22.212
7.4337,19.7974,22.312
7.467,20.297,22.412
7.5007,20.3229,22.512
7.534,20.6349,22.612
7.5671,20.9743,22.712
7.6004,21.2869,22.812
7.6337,21.6486,22.912
7.667,21.1907,23.012
7.7006,21.3497,23.112
7.734,21.3847,23.212
7.7673,21.7924,23.312
7.8006,22.1461,23.412
7.8338,22.7272,23.512
7.8671,22.7688,23.612
7.9004,23.5454,23.712
7.9337,23.558,23.812
7.967,23.954,23.912
8.0007,24.475,24.012
8.0343,24.8648,24.112
8.0673,25.1321,24.212
8.1003,25.4578,24.312
8.1338,25.6668,24.412
8.1671,26.1049,24.512
8.2005,26.4882,24.612
8.2339,26.6844,24.712
8.2674,26.942,24.812
8.301,26.9877,24.912
8.3342,27.6931,25.012
8.367,28.1579,25.112
8.4004,28.1776,25.212
8.4337,28.8009,25.312
8.467,29.1748,25.412
8.5006,29.3812,25.512
8.534,29.472,25.612
8.5674,28.4136,25.712
8.6006,28.1358,25.812
8.6339,27.8483,25.912
8.6672,28.0522,26.012
8.7005,28.4007,26.112
8.7337,28.2823,26.212
8.7671,28.7622,26.312
8.8006,28.9531,26.412
8.8342,29.2579,26.512
8.8674,29.594,26.612
8.9005,29.7109,26.712
8.9337,29.8984,26.812
8.9671,30.2526,26.912
9.0004,30.4534,27.012
9.034,30.492,27.112
9.0673,31.1017,27.212
9.1006,31.0898,27.312
9.1338,31.7127,27.412
9.167,31.9748,27.512
9.2003,32.6602,27.612
9.2338,32.9084,27.712
9.267,33.1622,27.812
9.3003,34.1963,27.912
9.3337,34.0962,28.012
9.367,34.4853,28.112
9.4002,34.8837,28.212
9.4335,35.2356,28.312
9.4669,35.8093,28.412
9.5001,35.6389,28.512
9.5335,35.4447,28.612
9.5671,35.9665,28.712
9.6004,35.9851,28.812
9.6336,35.3191,28.912
9.6668,35.3187,29.012
9.7001,35.8365,29.112
9.7335,35.7683,29.212
9.7668,35.8623,29.312
9.8,36.2098,29.412
9.8334,34.3399,29.512
9.8667,34.0661,29.612
9.9004,34.4281,29.712
9.9336,35.0496,29.812
9.9667,35.0324,29.912
10.0001,35.4412,30.012
10.0333,36.0712,30.112
10.0667,36.2844,30.212
10.1002,36.5409,30.312
10.1337,36.5811,30.412
10.167,36.9893,30.512
10.2002,37.2769,30.612
10.2335,37.7986,30.712
10.2669,38.0275,30.812
10.3,38.3942,30.912
10.3333,38.6635,31.012
10.3667,38.9912,31.112
10.4004,39.4673,31.212
10.4338,40.2634,31.312
10.4668,40.5529,31.412
10.5,41.1105,31.512
10.5336,41.7645,31.612
10.5668,42.5944,31.712
10.6002,42.9866,31.812
10.6337,44.1061,31.912
10.6672,44.712,32.012
10.7006,45.637,32.112
10.7337,46.2502,32.212
10.7668,46.4142,32.312
10.8001,46.5643,32.412
10.8334,47.2308,32.512
10.8668,47.7026,32.612
10.9002,48.34,32.712
10.9337,48.9015,32.812
10.967,50.0316,32.912
11.0004,50.3771,33.012
11.0336,50.9523,33.112
11.0669,51.4811,33.212
11.1002,52.0237,33.312
11.1334,52.363,33.412
11.1668,51.9574,33.512
11.2004,50.5617,33.612
11.2339,51.3649,33.712
11.2672,51.2524,33.812
11.3003,51.3868,33.912
11.3336,51.4743,34.012
11.3669,51.8227,34.112
11.4002,52.4066,34.212
11.4338,53.2317,34.312
11.4672,53.8033,34.412
11.5005,54.806,34.512
11.5337,55.4352,34.612
11.5668,56.0803,34.712
11.6003,56.8447,34.812
11.6337,56.9159,34.912
11.667,57.7165,35.012
11.7003,58.5813,35.112
11.7338,59.3836,35.212
11.7671,59.936,35.312
11.8003,60.4836,35.412
11.8337,60.1732,35.512
11.8671,61.0606,35.612
11.9003,61.5257,35.712
11.9338,62.4786,35.812
11.9672,63.1296,35.912
12.0006,64.1392,36.012
12.0339,64.1763,36.112
12.0671,64.7229,36.212
12.1004,65.5631,36.312
12.1337,66.1791,36.412
12.1671,66.5558,36.512
12.2003,66.862,36.612
12.2337,67.4256,36.712
12.2671,68.3599,36.812
12.3008,68.6971,36.912
12.334,68.9807,37.012
12.3671,69.4286,37.112
12.4004,69.5058,37.212
12.4337,69.4795,37.312
12.4671,68.5652,37.412
12.5005,68.4955,37.512
12.534,68.9936,37.612
12.5673,68.7874,37.712
12.6006,68.4133,37.812
12.6339,67.8838,37.912
12.6671,67.8473,38.012
12.7003,67.9704,38.112
12.7336,68.3179,38.212
12.767,68.7625,38.312
12.8008,69.3571,38.412
12.8341,69.6601,38.512
12.8671,69.5699,38.612
12.9004,68.9844,38.712
12.9338,69.3402,38.812
12.967,69.6982,38.912
13.0005,60.9128,39.012
13.0339,59.8744,39.112
13.0675,60.4329,39.212
13.1009,60.8155,39.312
13.1339,60.9369,39.412
13.167,57.2041,39.512
13.2004,56.2341,39.612
13.2337,52.8438,39.712
13.2671,50.6383,39.812
13.3005,50.0225,39.912
13.334,49.4565,40.012
13.3674,48.3695,40.112
13.4007,48.4496,40.212
13.4339,48.6122,40.312
13.4672,48.6759,40.412
13.5005,49.237,40.512
13.5337,49.6976,40.612
13.567,50.4057,40.712
13.6006,50.4801,40.812
13.6341,50.1544,40.912
13.6673,49.8251,41.012
13.7004,47.5389,41.112
13.7336,46.8877,41.212
13.767,47.5547,41.312
13.8002,47.9414,41.412
13.8337,48.426,41.512
13.8671,49.1983,41.612
13.9004,49.562,41.712
13.9336,49.8172,41.812
13.9667,48.9749,41.912
14.0001,48.8861,42.012
14.0336,47.6564,42.112
14.0668,47.7088,42.212
14.1001,47.6114,42.312
14.1335,46.6774,42.412
14.1668,46.7856,42.512
14.2,46.5116,42.612
14.2334,46.9342,42.712
14.2668,45.7752,42.812
14.3001,44.5873,42.912
14.3335,43.599,43.012
14.3669,42.9709,43.112
14.4003,43.1343,43.212
14.4335,42.0374,43.312
14.4668,41.6012,43.412
14.5001,41.8745,43.512
14.5334,41.9732,43.612
14.5667,41.4291,43.712
14.6,40.9577,43.812
14.6332,40.7103,43.912
14.6668,40.9559,44.012
14.7003,40.5634,44.112
14.7336,40.553,44.212
14.7667,40.7088,44.312
14.8001,40.7764,44.412
14.8335,40.8716,44.512
14.8668,40.2281,44.612
14.9001,40.1638,44.712
14.9337,40.3738,44.812
14.9669,40.485,44.912
15.0002,40.0079,45.012
15.0336,39.864,45.112
15.0669,39.5351,45.212
15.1001,39.768,45.312
15.1333,39.8481,45.412
15.1668,39.629,45.512
15.2005,39.4656,45.612
15.2337,27.0036,45.712
15.2668,23.1046,45.812
15.3002,23.2971,45.912
15.3336,23.5046,46.012
15.3669,23.6908,46.112
15.4002,23.4901,46.212
15.4336,23.5296,46.312
15.4673,23.3973,46.412
15.5006,22.7115,46.512
15.5336,22.607,46.612
15.5667,22.7194,46.712
15.6001,22.701,46.812
15.6335,23.0044,46.912
15.6669,23.0246,47.012
15.7002,23.2009,47.112
15.7336,23.259,47.212
15.7671,22.9338,47.312
15.8004,23.068,47.412
15.8337,23.0973,47.512
15.867,22.8499,47.612
15.9003,23.0518,47.712
15.9336,23.0554,47.812
15.9668,22.2619,47.912
16.0005,21.902,48.012
16.0339,21.973,48.112
16.0672,21.215,48.212
16.1004,21.6264,48.312
16.1336,21.6612,48.412
16.167,21.8096,48.512
16.2004,21.9323,48.612
16.2338,21.8819,48.712
16.2672,22.287,48.812
16.3005,22.3536,48.912
16.3338,22.21,49.012
16.3669,22.3306,49.112
16.4004,21.9903,49.212
16.4338,22.1252,49.312
16.4671,22.3245,49.412
16.5004,21.8336,49.512
16.5337,22.0965,49.612
16.5671,22.1039,49.712
16.6004,21.4684,49.812
16.6337,21.4176,49.912
16.6671,21.3059,50.012
16.7004,21.4909,50.112
16.7339,21.671,50.212
16.7673,21.4982,50.312
16.8006,21.7387,50.412
16.834,21.5302,50.512
16.8672,21.905,50.612
16.9006,21.6136,50.712
16.9339,21.6934,50.812
16.9672,21.9256,50.912
17.0005,21.7676,51.012
17.0336,21.8701,51.112
17.0672,21.8977,51.212
17.1007,21.6773,51.312
17.1339,21.662,51.412
17.1672,20.7785,51.512
17.2004,20.7533,51.612
17.2338,21.0229,51.712
17.2672,21.0033,51.812
17.3005,21.187,51.912
17.3339,21.3233,52.012
17.3673,21.583,52.112
17.4006,21.6182,52.212
17.4339,21.7053,52.312
17.4672,21.3777,52.412
17.5004,21.322,52.512
17.5337,21.3176,52.612
17.5672,21.5091,52.712
17.6009,21.6185,52.812
17.6341,21.6845,52.912
17.6671,21.5325,53.012
17.7005,21.8481,53.112
17.7339,21.5669,53.212
17.7672,21.8393,53.312
17.8005,21.8965,53.412
17.8338,22.1944,53.512
17.8675,22.1211,53.612
17.9008,22.3072,53.712
17.9338,22.0262,53.812
17.9669,22.4094,53.912
18.0003,22.2571,54.012
18.0337,22.5011,54.112
18.0671,22.5309,54.212
18.1003,22.7088,54.312
18.1337,22.7958,54.412
18.1672,23.043,54.512
18.2006,23.1199,54.612
18.2338,23.2151,54.712
18.267,23.0067,54.812
18.3003,23.1276,54.912
18.3336,23.3236,55.012
18.3668,23.4291,55.112
18.4004,23.5666,55.212
18.4339,23.5765,55.312
18.4671,23.7509,55.412
18.5003,23.7071,55.512
18.5336,24.1076,55.612
18.5669,24.0795,55.712
18.6003,20.1752,55.812
18.6336,20.0132,55.912
18.6669,19.7003,56.012
18.7003,20.0254,56.112
18.7336,20.229,56.212
18.7668,20.0796,56.312
18.8002,20.1673,56.412
18.8336,20.8373,56.512
18.8668,20.6558,56.612
18.9001,20.5721,56.712
18.9334,20.2401,56.812
18.9668,15.4547,56.912
19.0001,14.6112,57.012
19.0336,14.773,57.112
19.0668,14.6925,57.212
19.1002,14.7897,57.312
19.1336,14.6521,57.412
19.1669,14.8919,57.512
19.2003,15.1368,57.612
19.2336,14.8793,57.712
19.2668,15.1483,57.812
19.3002,15.1742,57.912
19.3336,15.3396,58.012
19.3668,15.3474,58.112
19.4001,15.4531,58.212
19.4333,15.549,58.312
19.4669,15.65,58.412
19.5004,15.5682,58.512
19.5335,15.6684,58.612
19.5668,15.7699,58.712
19.6001,15.8071,58.812
19.6335,15.9998,58.912
19.6669,16.0644,59.012
19.7002,16.0358,59.112
19.7336,15.9225,59.212
19.767,15.7152,59.312
19.8003,15.8576,59.412
19.8336,15.761,59.512
19.8669,15.6245,59.612
19.9002,15.5489,59.712
19.9334,15.7043,59.812
19.9669,15.7628,59.912
20.0006,14.9746,60.012
20.0337,14.8347,60.112
20.0668,15.0132,60.212
20.1003,15.0212,60.312
20.1337,14.819,60.412
20.1671,14.6494,60.512
20.2003,14.7973,60.612
20.2337,14.8288,60.712
20.2672,14.816,60.812
20.3007,14.7785,60.912
20.3336,15.0253,61.012
20.3669,15.105,61.112
20.4002,15.0762,61.212
20.4337,14.901,61.312
20.467,15.0741,61.412
20.5003,14.9833,61.512
20.5337,15.0142,61.612
20.5672,15.2068,61.712
20.6005,15.1304,61.812
20.6338,15.2833,61.912
20.6671,15.2697,62.012
20.7004,15.4715,62.112
20.7337,15.501,62.212
20.767,15.3299,62.312
20.8005,15.222,62.412
20.834,15.2507,62.512
20.8672,15.5077,62.612
20.9005,15.7119,62.712
20.9338,15.4827,62.812
20.9672,15.171,62.912
21.0006,15.6184,63.012
21.0339,15.7132,63.112
21.0672,15.4409,63.212
21.1006,15.2134,63.312
21.1338,15.2407,63.412
21.1671,14.6283,63.512
21.2006,13.7702,63.612
21.2339,13.3926,63.712
21.2672,13.085,63.812
21.3004,12.9117,63.912
21.3338,12.6805,64.012
21.3671,12.3958,64.112
21.4005,12.4663,64.212
21.4339,12.224,64.312
21.4672,12.6484,64.412
21.5005,12.511,64.512
21.534,12.5668,64.612
21.5673,12.7055,64.712
21.6005,12.4368,64.812
21.6339,12.4635,64.912
21.6672,13.1125,65.012
21.7006,12.7966,65.112
21.7339,12.5915,65.212
21.7671,12.7304,65.312
21.8005,12.364,65.412
21.8336,12.4463,65.512
21.8672,12.49,65.612
21.9007,12.27,65.712
21.9338,12.3947,65.812
21.9672,12.3648,65.912
22.0005,12.3369,66.012
22.0338,12.3827,66.112
22.0672,12.2092,66.212
22.1005,12.3857,66.312
22.1338,12.8653,66.412
22.1672,12.27,66.512
22.2005,12.8325,66.612
22.2338,12.4241,66.712
22.2672,12.5781,66.812
22.3004,12.3751,66.912
22.3335,12.4513,67.012
22.367,12.8459,67.112
22.4006,12.4793,67.212
22.4338,12.6345,67.312
22.4669,12.4243,67.412
22.5004,12.2835,67.512
22.5338,12.3589,67.612
22.5672,12.744,67.712
22.6004,12.6301,67.812
22.6337,12.356,67.912
22.6673,12.7351,68.012
22.7007,12.5989,68.112
22.7336,12.4721,68.212
22.7669,12.678,68.312
22.8003,12.6447,68.412
22.8336,12.5782,68.512
22.8671,12.5538,68.612
22.9003,12.8068,68.712
22.9336,12.8768,68.812
22.9671,12.9518,68.912
23.0005,12.7797,69.012
23.0337,12.7642,69.112
23.0671,12.6852,69.212
23.1003,12.8991,69.312
23.1336,12.7409,69.412
23.1669,12.7839,69.512
23.2004,12.5044,69.612
23.2338,12.9482,69.712
23.267,12.7569,69.812
23.3002,12.3428,69.912
23.3337,12.5326,70.012
23.367,12.6654,70.112
23.4005,12.489,70.212
23.4336,12.7181,70.312
23.4668,12.4156,70.412
23.5003,12.3485,70.512
23.5334,12.6408,70.612
23.5668,12.5463,70.712
23.6003,12.5727,70.812
23.6336,12.5837,70.912
23.6668,12.8453,71.012
23.7001,12.6639,71.112
23.7333,12.7207,71.212
23.7667,12.4197,71.312
23.8001,12.6272,71.412
23.8336,12.4155,71.512
23.8668,11.9142,71.612
23.9002,12.1139,71.712
23.9336,11.8663,71.812
23.9669,11.8734,71.912
24.0001,12.0383,72.012
24.0335,12.1351,72.112
24.0668,11.3329,72.212
24.1002,10.9674,72.312
24.1336,10.6391,72.412
24.1669,10.1577,72.512
24.2002,10.2692,72.612
24.2334,9.7542,72.712
24.2669,9.75747,72.812
24.3004,9.82329,72.912
24.3335,9.70286,73.012
24.3669,9.7012,73.112
24.4002,9.58826,73.212
24.4336,9.542,73.312
24.467,9.4624,73.412
24.5003,9.78073,73.512
24.5336,9.64372,73.612
24.567,9.431,73.712
24.6004,9.35221,73.812
24.6337,9.43091,73.912
24.667,9.41377,74.012
24.7003,9.30283,74.112
24.7336,9.35673,74.212
24.7671,9.34475,74.312
24.8005,9.17841,74.412
24.8336,9.22224,74.512
24.8669,9.45341,74.612
24.9004,8.91233,74.712
24.9338,8.77713,74.812
24.9672,9.07711,74.912
25.0005,8.92135,75.012
25.0338,9.11241,75.112
25.0674,8.95245,75.212
25.1006,9.12423,75.312
25.1336,9.01695,75.412
25.167,8.90339,75.512
25.2004,8.8791,75.612
25.2338,8.97351,75.712
25.2672,8.99531,75.812
25.3005,8.94845,75.912
25.3338,9.10025,76.012
25.3672,9.00988,76.112
25.4005,9.03718,76.212
25.4339,8.89091,76.312
25.4672,8.58892,76.412
25.5005,8.72784,76.512
25.5338,8.41029,76.612
25.5672,8.54792,76.712
25.6006,8.27587,76.812
25.634,8.12919,76.912
25.6673,7.92243,77.012
25.7006,8.22418,77.112
25.7339,7.86926,77.212
25.7673,8.02179,77.312
25.8007,7.70627,77.412
25.834,7.75994,77.512
25.8672,7.47983,77.612
25.9005,7.18041,77.712
25.9337,7.02227,77.812
25.9672,7.04237,77.912
26.0007,6.72166,78.012
26.0339,6.86329,78.112
26.0672,6.61457,78.212
26.1004,6.56544,78.312
26.1337,6.44684,78.412
26.1669,6.29814,78.512
26.2004,6.14023,78.612
26.2339,5.95576,78.712
26.2672,5.78033,78.812
26.3006,6.01486,78.912
26.334,5.69977,79.012
26.3673,5.66096,79.112
26.4004,5.62808,79.212
26.4337,5.35111,79.312
26.4671,5.387,79.412
26.5005,5.26438,79.512
26.5338,5.09411,79.612
26.5671,4.76126,79.712
26.6004,4.71375,79.812
26.6336,4.58723,79.912
26.6672,4.68441,80.012
26.7005,4.42508,80.112
26.7337,4.53839,80.212
26.7671,4.60378,80.312
26.8004,4.51965,80.412
26.8338,4.21506,80.512
26.8672,4.54492,80.612
26.9005,4.30467,80.712
26.9337,4.41343,80.812
26.967,4.55927,80.912
27.0004,4.32805,81.012
27.0338,4.24672,81.112
27.067,3.912,81.212
27.1003,3.82952,81.312
27.1337,3.80235,81.412
27.1673,3.6329,81.512
27.2006,3.45445,81.612
27.2336,3.59115,81.712
27.2669,3.52762,81.812
27.3005,3.34657,81.912
27.3337,3.33684,82.012
27.3671,3.67162,82.112
27.4005,3.28891,82.212
27.4339,3.34991,82.312
27.4673,3.11281,82.412
27.5004,3.33875,82.512
27.5335,3.18362,82.612
27.5669,3.15142,82.712
27.6003,3.12771,82.812
27.6336,3.01636,82.912
27.6671,2.96505,83.012
27.7003,2.81097,83.112
27.7336,2.82603,83.212
27.7669,2.89226,83.312
27.8004,2.83853,83.412
27.8336,2.80095,83.512
27.867,3.06608,83.612
27.9002,2.77697,83.712
27.9336,2.7606,83.812
27.9669,2.8541,83.912
28.0003,2.67075,84.012
28.0336,2.71354,84.112
28.067,2.81165,84.212
28.1002,2.44424,84.312
28.1336,2.47611,84.412
28.1669,2.47364,84.512
28.2004,2.42114,84.612
28.2336,2.38971,84.712
28.2668,2.41058,84.812
28.3001,2.31762,84.912
28.3333,2.11802,85.012
28.3668,1.97888,85.112
28.4004,1.92465,85.212
28.4336,2.34365,85.312
28.4669,1.84513,85.412
28.5001,1.85109,85.512
28.5333,1.89588,85.612
28.5665,2.04943,85.712
28.6001,1.79047,85.812
28.6335,1.89966,85.912
28.6669,1.56658,86.012
28.7003,1.66303,86.112
28.7337,1.65739,86.212
28.7669,1.78224,86.312
28.8001,1.61212,86.412
28.8334,1.7007,86.512
28.8669,1.63481,86.612
28.9003,1.58583,86.712
28.9336,1.40217,86.812
28.9669,1.41336,86.912
29.0002,1.44903,87.012
29.0335,1.40131,87.112
29.067,1.4989,87.212
29.1003,1.40354,87.312
29.1336,1.33511,87.412
29.1669,1.21636,87.512
29.2004,1.20939,87.612
29.2338,1.17639,87.712
29.2671,1.31785,87.812
29.3004,1.31425,87.912
29.3337,1.33879,88.012
29.367,1.15641,88.112
29.4005,1.33578,88.212
29.4338,1.12593,88.312
29.4671,0.931736,88.412
29.5004,1.12476,88.512
29.5339,1.09332,88.612
29.5674,0.949078,88.712
29.6006,1.40695,88.812
29.6336,0.845306,88.912
29.6671,1.05477,89.012
29.7006,0.961805,89.112
29.7339,0.971195,89.212
29.7673,0.852057,89.312
29.8007,0.944286,89.412
29.8341,0.804898,89.512
29.8675,0.82549,89.612
29.9005,1.01068,89.712
29.9337,0.739136,89.812
29.9671,1.09948,89.912
30.0006,1.08053,90.012
30.034,0.837495,90.112
30.0673,0.825164,90.212
30.1006,1.04028,90.312
30.1339,1.0174,90.412
30.1672,0.969423,90.512
30.2006,0.975812,90.612
30.234,0.886655,90.712
30.2673,0.960822,90.812
30.3006,1.05971,90.912
30.3339,0.802033,91.012
30.3673,1.1208,91.112
30.4007,1.03419,91.212
30.4339,0.928605,91.312
30.4672,0.95511,91.412
30.5005,1.08862,91.512
30.5339,0.846009,91.612
30.5673,1.06147,91.712
30.6008,0.942961,91.812
30.6339,0.955035,91.912
30.667,0.942563,92.012
30.7003,1.10505,92.112
30.7336,0.935904,92.212
30.7671,1.03732,92.312
30.8006,1.26733,92.412
30.8339,1.04255,92.512
30.8671,1.1518,92.612
30.9004,0.956748,92.712
30.9335,0.952408,92.812
30.9668,0.952321,92.912
31.0004,0.824956,93.012
31.0338,0.865619,93.112
31.0671,0.681777,93.212
31.1006,0.882753,93.312
31.1339,0.777225,93.412
31.1671,0.512459,93.512
31.2003,0.497812,93.612
31.2334,0.478066,93.712
31.267,0.617977,93.812
31.3003,0.580958,93.912
31.3337,0.707051,94.012
31.367,0.585268,94.112
31.4002,0.544302,94.212
31.4336,0.48093,94.312
31.4671,0.536763,94.412
31.5002,0.481042,94.512
31.5336,0.440806,94.612
31.5669,0.357888,94.712
31.6004,0.348465,94.812
31.6337,0.491726,94.912
31.6671,0.333441,95.012
31.7004,0.388494,95.112
31.7336,0.369361,95.212
31.7668,0.562131,95.312
31.8003,0.493707,95.412
31.8337,0.319499,95.512
31.8668,0.292732,95.612
31.9002,0.287482,95.712
31.9336,0.357269,95.812
31.9672,0.156124,95.912
32.0003,0.12049,96.012
32.0333,0.0213741,96.112
32.0668,0.102378,96.212
32.1003,0.563226,96.312
32.1336,0.302925,96.412
32.167,0.223117,96.512
32.2003,0.233882,96.612
32.2338,0.359488,96.712
32.2671,0.171651,96.812
32.3,0.111592,96.912
32.3333,0.177914,97.012
32.3668,0.100324,97.112
32.4002,0.148198,97.212
32.4336,0.196733,97.312
32.467,0.207722,97.412
32.5003,0.0436483,97.512
32.5335,0.0657561,97.612
32.5668,0.125584,97.712
32.6003,0.227293,97.812
32.6336,0.0983115,97.912
32.6669,0.0550291,98.012
32.7002,0.38603,98.112
32.7335,0.136787,98.212
32.767,0.067135,98.312
32.8003,0.308577,98.412
32.8334,0.119664,98.512
32.8668,0.193979,98.612
32.9001,0.137862,98.712
32.9335,0.0186989,98.812
32.967,0.0212884,98.912
33.0004,0.036703,99.012
33.0335,0.675775,99.112
33.0667,0.148996,99.212
33.1,0.176699,99.312