File: Selected_data/SSP_2025-03-17_D1_NO.csv
Crossheadmm,LoadN,Timesec
0.0344,0.198805,0.115
0.0675,0.43198,0.215
0.1009,0.34186,0.315
0.1345,0.543972,0.415
0.1681,0.53224,0.515
0.2015,0.737432,0.615
0.2348,0.708565,0.715
0.2682,0.63778,0.815
0.3013,0.723475,0.915
0.3342,0.845197,1.015
0.3676,0.737814,1.115
0.4013,0.809992,1.215
0.4347,0.93028,1.315
0.4682,1.0475,1.415
0.5017,0.985567,1.515
0.535,0.953419,1.615
0.5681,1.03805,1.715
0.6011,1.10062,1.815
0.6344,1.27815,1.915
0.6679,1.23135,2.015
0.7014,1.45134,2.115
0.7347,1.47784,2.215
0.768,1.48789,2.315
0.8012,1.62645,2.415
0.8347,1.69687,2.515
0.868,1.59243,2.615
0.9012,1.82042,2.715
0.9345,2.01262,2.815
0.9679,2.10993,2.915
1.0014,2.20275,3.015
1.0348,2.30982,3.115
1.0681,2.4158,3.215
1.1014,2.66162,3.315
1.1346,2.67566,3.415
1.1679,2.90189,3.515
1.2014,3.19026,3.615
1.2346,3.40356,3.715
1.2679,3.51416,3.815
1.3012,3.86512,3.915
1.3348,4.12214,4.015
1.3682,4.39495,4.115
1.4011,4.61167,4.215
1.4345,4.85484,4.315
1.4681,5.10514,4.415
1.5012,5.3603,4.515
1.5346,5.82229,4.615
1.568,6.27998,4.715
1.6013,6.50983,4.815
1.6348,6.87396,4.915
1.6679,7.19515,5.015
1.701,7.48583,5.115
1.7345,7.79118,5.215
1.7679,8.01402,5.315
1.8013,8.32568,5.415
1.8347,8.75422,5.515
1.8678,9.1947,5.615
1.9012,9.66134,5.715
1.9345,10.2965,5.815
1.9678,10.8153,5.915
2.0012,11.2908,6.015
2.0345,11.537,6.115
2.0678,12.0382,6.215
2.1011,12.2124,6.315
2.1345,12.9302,6.415
2.168,13.2848,6.515
2.2012,13.6848,6.615
2.2344,14.1765,6.715
2.2677,14.7484,6.815
2.3013,15.2427,6.915
2.3348,15.8982,7.015
2.3685,16.5558,7.115
2.4014,17.086,7.215
2.4344,17.8771,7.315
2.4676,18.4944,7.415
2.5008,19.1354,7.515
2.5344,19.9376,7.615
2.568,20.7441,7.715
2.6014,21.6366,7.815
2.6348,22.5318,7.915
2.668,23.5368,8.015
2.7012,24.4751,8.115
2.7343,25.5347,8.215
2.7676,26.8044,8.315
2.8013,27.9867,8.415
2.8347,29.2028,8.515
2.8682,30.3779,8.615
2.9018,31.5162,8.715
2.935,32.7704,8.815
2.9681,33.7873,8.915
3.0012,35.2056,9.015
3.0345,36.5376,9.115
3.068,37.8381,9.215
3.1014,39.2916,9.315
3.1348,40.7498,9.415
3.168,42.3154,9.515
3.2013,43.7898,9.615
3.2348,45.3472,9.715
3.268,46.7207,9.815
3.3013,48.2605,9.915
3.3346,49.7141,10.015
3.368,51.1161,10.115
3.4014,52.8233,10.215
3.4349,54.507,10.315
3.4682,56.3953,10.415
3.5015,58.3089,10.515
3.5347,59.858,10.615
3.568,61.4527,10.715
3.6014,63.3163,10.815
3.6347,65.1192,10.915
3.668,66.9962,11.015
3.7014,68.9842,11.115
3.7349,70.7971,11.215
3.7683,72.7081,11.315
3.8012,74.8728,11.415
3.8346,76.9049,11.515
3.8682,79.1609,11.615
3.9013,81.1273,11.715
3.9348,83.4429,11.815
3.9683,85.6003,11.915
4.0016,87.7486,12.015
4.035,89.8958,12.115
4.0682,92.3429,12.215
4.1012,94.5467,12.315
4.1345,97.0683,12.415
4.168,99.5481,12.515
4.2015,102.06,12.615
4.2349,104.578,12.715
4.2681,107.093,12.815
4.3014,109.744,12.915
4.3348,112.285,13.015
4.3679,114.633,13.115
4.4013,117.278,13.215
4.4347,119.778,13.315
4.4681,122.411,13.415
4.5014,124.794,13.515
4.5348,127.485,13.615
4.5682,130.083,13.715
4.6015,132.431,13.815
4.6345,135.093,13.915
4.6677,137.689,14.015
4.7013,140.434,14.115
4.735,143.109,14.215
4.7685,145.798,14.315
4.8014,148.221,14.415
4.8345,150.623,14.515
4.8677,153.315,14.615
4.9009,156.099,14.715
4.9344,158.726,14.815
4.968,161.599,14.915
5.0014,164.187,15.015
5.0348,167.087,15.115
5.068,169.581,15.215
5.1012,172.456,15.315
5.1342,174.776,15.415
5.1675,177.157,15.515
5.2011,179.833,15.615
5.2347,182.42,15.715
5.2681,184.95,15.815
5.3016,187.503,15.915
5.3348,190.143,16.015
5.3679,192.861,16.115
5.401,195.653,16.215
5.4343,198.214,16.315
5.4678,201.056,16.415
5.5012,203.648,16.515
5.5346,206.436,16.615
5.5678,209.001,16.715
5.6011,211.665,16.815
5.6347,214.289,16.915
5.6678,216.781,17.015
5.701,218.41,17.115
5.7343,220.846,17.215
5.7678,223.411,17.315
5.8012,226.069,17.415
5.8346,228.503,17.515
5.8679,231.184,17.615
5.9011,233.65,17.715
5.9343,235.96,17.815
5.9676,238.456,17.915
6.001,241.011,18.015
6.0343,243.441,18.115
6.0676,245.813,18.215
6.101,247.724,18.315
6.1346,248.864,18.415
6.1679,250.794,18.515
6.2007,252.884,18.615
6.2341,255.093,18.715
6.2676,257.398,18.815
6.3008,259.433,18.915
6.3343,261.494,19.015
6.3677,263.636,19.115
6.4011,265.813,19.215
6.4345,267.759,19.315
6.4676,269.713,19.415
6.5007,271.686,19.515
6.5341,273.768,19.615
6.5676,275.738,19.715
6.601,277.233,19.815
6.6344,278.347,19.915
6.6676,279.905,20.015
6.701,281.536,20.115
6.7342,283.297,20.215
6.7675,284.931,20.315
6.8008,286.506,20.415
6.8343,287.735,20.515
6.8676,285.663,20.615
6.901,279.882,20.715
6.9345,232.519,20.815
6.9679,230.916,20.915
7.0011,227.095,21.015
7.0343,215.685,21.115
7.0676,198.086,21.215
7.1012,194.191,21.315
7.1348,169.105,21.415
7.1683,155.823,21.515
7.2012,126.56,21.615
7.2345,44.0103,21.715
7.2677,43.0157,21.815
7.3009,41.8956,21.915
7.3345,42.3486,22.015
7.368,42.279,22.115
7.4014,42.5857,22.215
7.4348,42.8437,22.315
7.4681,43.0395,22.415
7.5011,43.1225,22.515
7.5343,43.3877,22.615
7.5677,43.526,22.715
7.6012,41.2358,22.815
7.6347,40.6586,22.915
7.6682,39.8996,23.015
7.7017,39.7578,23.115
7.7349,39.8561,23.215
7.768,39.6461,23.315
7.8011,39.8194,23.415
7.8344,39.9444,23.515
7.8679,40.1146,23.615
7.9013,40.3623,23.715
7.9347,40.2834,23.815
7.9679,39.8369,23.915
8.0014,36.9954,24.015
8.0348,36.7974,24.115
8.0681,36.6411,24.215
8.1012,36.65,24.315
8.1345,36.7883,24.415
8.168,36.9109,24.515
8.2015,37.0265,24.615
8.2349,37.1169,24.715
8.2682,37.2098,24.815
8.3015,37.2364,24.915
8.3347,37.3713,25.015
8.368,37.2346,25.115
8.4014,37.3912,25.215
8.4348,37.5148,25.315
8.468,37.6024,25.415
8.5016,37.8246,25.515
8.5352,37.9183,25.615
8.5684,37.9783,25.715
8.6014,38.0788,25.815
8.6347,38.2239,25.915
8.6681,38.3167,26.015
8.7015,38.4084,26.115
8.7348,38.4146,26.215
8.7683,38.842,26.315
8.8018,38.9186,26.415
8.8351,38.9917,26.515
8.8682,38.9539,26.615
8.9013,39.2894,26.715
8.9346,39.4054,26.815
8.9682,39.5433,26.915
9.0017,39.6376,27.015
9.035,39.5748,27.115
9.0683,39.6408,27.215
9.1016,39.5436,27.315
9.135,39.4699,27.415
9.1681,39.4799,27.515
9.2014,39.5927,27.615
9.2349,39.6218,27.715
9.2682,39.4973,27.815
9.3016,39.4154,27.915
9.3351,38.6435,28.015
9.3684,38.4436,28.115
9.4016,37.9367,28.215
9.4347,37.3438,28.315
9.468,37.2435,28.415
9.5016,37.2531,28.515
9.5353,37.2712,28.615
9.5687,37.2406,28.715
9.6016,37.1775,28.815
9.6347,36.9798,28.915
9.6679,36.8139,29.015
9.7011,36.8684,29.115
9.7346,36.7162,29.215
9.7682,36.6028,29.315
9.8016,32.7729,29.415
9.835,29.6907,29.515
9.8682,27.8948,29.615
9.9012,27.3763,29.715
9.9344,27.1214,29.815
9.9679,27.0607,29.915
10.0011,26.6786,30.015
10.0347,26.7159,30.115
10.0682,26.7053,30.215
10.1017,26.6427,30.315
10.1349,26.7306,30.415
10.1679,26.6971,30.515
10.201,26.5906,30.615
10.2344,26.7252,30.715
10.2678,26.7103,30.815
10.3012,26.681,30.915
10.3345,26.8095,31.015
10.3678,26.8177,31.115
10.4013,26.8754,31.215
10.4347,26.7959,31.315
10.4678,26.9597,31.415
10.501,26.9647,31.515
10.5343,26.9062,31.615
10.5677,26.9633,31.715
10.6012,26.9655,31.815
10.6346,26.919,31.915
10.668,27.0938,32.015
10.7012,27.0476,32.115
10.7344,27.1076,32.215
10.7676,27.1318,32.315
10.801,27.0841,32.415
10.8344,27.1764,32.515
10.8677,27.0271,32.615
10.9012,27.1772,32.715
10.9349,27.1012,32.815
10.9679,27.1355,32.915
11.001,27.1585,33.015
11.0344,27.1763,33.115
11.0678,27.1467,33.215
11.1012,27.2536,33.315
11.1346,27.2087,33.415
11.1679,27.3549,33.515
11.2015,27.3235,33.615
11.2347,27.5073,33.715
11.2678,27.5579,33.815
11.301,27.5709,33.915
11.3344,27.6232,34.015
11.3679,27.8201,34.115
11.4014,27.6722,34.215
11.4347,27.7988,34.315
11.4681,27.467,34.415
11.5013,27.5905,34.515
11.5346,27.6829,34.615
11.5678,27.6788,34.715
11.6011,27.686,34.815
11.6346,27.6121,34.915
11.6679,27.6904,35.015
11.7013,27.779,35.115
11.7348,27.725,35.215
11.7681,27.8078,35.315
11.8012,27.7951,35.415
11.8344,27.9798,35.515
11.8677,27.888,35.615
11.9014,28.1623,35.715
11.935,28.2363,35.815
11.9683,28.1578,35.915
12.0014,28.2638,36.015
12.0345,28.2137,36.115
12.0677,28.2956,36.215
12.101,28.3468,36.315
12.1345,28.2982,36.415
12.168,28.5253,36.515
12.2015,28.5886,36.615
12.2349,28.4727,36.715
12.2682,28.612,36.815
12.3012,28.7729,36.915
12.3345,28.7681,37.015
12.368,28.7414,37.115
12.4013,28.8217,37.215
12.4347,28.9418,37.315
12.4684,29.1847,37.415
12.5018,29.1728,37.515
12.535,29.1308,37.615
12.5681,29.2629,37.715
12.6013,29.2807,37.815
12.6346,29.3836,37.915
12.668,29.4512,38.015
12.7014,29.4636,38.115
12.7348,29.7119,38.215
12.768,29.5362,38.315
12.8016,29.6458,38.415
12.8349,29.6718,38.515
12.8682,29.8284,38.615
12.9014,29.7073,38.715
12.9346,29.8169,38.815
12.968,29.875,38.915
13.0016,29.9406,39.015
13.035,30.0172,39.115
13.0684,29.9928,39.215
13.1016,30.0897,39.315
13.1349,30.2026,39.415
13.1681,30.193,39.515
13.2014,30.2831,39.615
13.2348,30.3009,39.715
13.2681,30.3429,39.815
13.3017,30.4574,39.915
13.3353,30.447,40.015
13.3684,30.4835,40.115
13.4015,30.4055,40.215
13.4349,30.5667,40.315
13.4681,30.3996,40.415
13.5015,30.6733,40.515
13.5349,30.6054,40.615
13.5683,30.5544,40.715
13.6018,30.7185,40.815
13.6351,30.6126,40.915
13.6681,30.8164,41.015
13.7014,30.7312,41.115
13.7346,30.7198,41.215
13.7681,30.8749,41.315
13.8016,30.9151,41.415
13.835,30.7622,41.515
13.8683,30.8566,41.615
13.9016,30.6628,41.715
13.9349,30.7211,41.815
13.9681,30.5988,41.915
14.0013,30.6777,42.015
14.0347,30.6319,42.115
14.0681,30.6198,42.215
14.1016,30.5196,42.315
14.1351,30.5204,42.415
14.1683,30.458,42.515
14.2015,30.3436,42.615
14.2346,30.1113,42.715
14.2679,30.1866,42.815
14.3015,30.1398,42.915
14.3353,30.1471,43.015
14.3685,30.1045,43.115
14.4015,29.9489,43.215
14.4346,29.7948,43.315
14.4678,29.6523,43.415
14.5011,29.4925,43.515
14.5345,29.2733,43.615
14.568,29.2739,43.715
14.6014,29.0581,43.815
14.6348,28.8404,43.915
14.6681,28.6455,44.015
14.701,28.4704,44.115
14.7344,28.4463,44.215
14.7678,28.1842,44.315
14.8011,28.1322,44.415
14.8346,27.9455,44.515
14.8682,27.811,44.615
14.9016,27.8989,44.715
14.9347,27.4432,44.815
14.9678,27.5409,44.915