File: Selected_data/SSP_2022-12-08_B5_OPER.csv
Crossheadmm,LoadN,Timesec
0.0,0.45,0.000
0.02,0.4,0.100
0.03,0.43,0.200
0.05,0.56,0.300
0.07,0.79,0.400
0.08,0.78,0.500
0.1,0.9,0.600
0.12,0.89,0.700
0.13,1.18,0.800
0.15,1.14,0.900
0.17,1.1,1.000
0.18,1.11,1.100
0.2,1.27,1.200
0.22,1.29,1.300
0.23,1.36,1.400
0.25,1.39,1.500
0.27,1.51,1.600
0.28,1.67,1.700
0.3,1.73,1.800
0.32,1.79,1.900
0.33,1.95,2.000
0.35,1.88,2.100
0.37,1.91,2.200
0.38,2.09,2.300
0.4,2.21,2.400
0.42,2.06,2.500
0.43,2.27,2.600
0.45,2.31,2.700
0.47,2.45,2.800
0.48,2.54,2.900
0.5,2.67,3.000
0.52,2.73,3.100
0.53,2.78,3.200
0.55,2.9,3.300
0.57,2.92,3.400
0.58,2.85,3.500
0.6,3.1,3.600
0.62,3.13,3.700
0.63,3.16,3.800
0.65,3.24,3.900
0.67,3.31,4.000
0.68,3.49,4.100
0.7,3.36,4.200
0.72,3.58,4.300
0.73,3.52,4.400
0.75,3.85,4.500
0.77,3.81,4.600
0.78,3.88,4.700
0.8,3.83,4.800
0.82,4.03,4.900
0.83,3.99,5.000
0.85,3.96,5.100
0.87,4.22,5.200
0.88,4.29,5.300
0.9,4.23,5.400
0.92,4.46,5.500
0.93,4.5,5.600
0.95,4.6,5.700
0.97,4.66,5.800
0.98,4.9,5.900
1.0,4.84,6.000
1.02,4.77,6.100
1.03,5.03,6.200
1.05,4.99,6.300
1.07,5.0,6.400
1.08,5.21,6.500
1.1,5.18,6.600
1.12,5.49,6.700
1.13,5.43,6.800
1.15,5.43,6.900
1.17,5.59,7.000
1.18,5.73,7.100
1.2,5.77,7.200
1.22,5.86,7.300
1.23,5.89,7.400
1.25,5.98,7.500
1.27,6.11,7.600
1.28,6.17,7.700
1.3,6.36,7.800
1.32,6.37,7.900
1.33,6.52,8.000
1.35,6.66,8.100
1.37,6.54,8.200
1.38,6.84,8.300
1.4,7.02,8.400
1.42,7.04,8.500
1.43,6.93,8.600
1.45,7.18,8.700
1.47,7.18,8.800
1.48,7.28,8.900
1.5,7.5,9.000
1.52,7.52,9.100
1.53,7.64,9.200
1.55,7.74,9.300
1.57,7.74,9.400
1.58,7.97,9.500
1.6,7.9,9.600
1.62,8.04,9.700
1.63,8.24,9.800
1.65,8.24,9.900
1.67,8.37,10.000
1.68,8.56,10.100
1.7,8.64,10.200
1.72,8.88,10.300
1.73,8.78,10.400
1.75,8.76,10.500
1.77,8.99,10.600
1.78,9.1,10.700
1.8,9.24,10.800
1.82,9.25,10.900
1.83,9.49,11.000
1.85,9.55,11.100
1.87,9.63,11.200
1.88,9.68,11.300
1.9,9.91,11.400
1.92,9.93,11.500
1.93,10.08,11.600
1.95,10.16,11.700
1.97,10.22,11.800
1.98,10.58,11.900
2.0,10.55,12.000
2.02,10.59,12.100
2.03,10.69,12.200
2.05,10.75,12.300
2.07,11.01,12.400
2.08,11.19,12.500
2.1,11.19,12.600
2.12,11.27,12.700
2.13,11.41,12.800
2.15,11.48,12.900
2.17,11.7,13.000
2.18,11.74,13.100
2.2,11.71,13.200
2.22,11.91,13.300
2.23,11.97,13.400
2.25,12.13,13.500
2.27,12.25,13.600
2.28,12.37,13.700
2.3,12.56,13.800
2.32,12.66,13.900
2.33,12.62,14.000
2.35,12.91,14.100
2.37,13.05,14.200
2.38,12.97,14.300
2.4,13.27,14.400
2.42,13.2,14.500
2.43,13.54,14.600
2.45,13.59,14.700
2.47,13.79,14.800
2.48,13.76,14.900
2.5,13.87,15.000
2.52,14.09,15.100
2.53,14.07,15.200
2.55,14.39,15.300
2.57,14.39,15.400
2.58,14.53,15.500
2.6,14.58,15.600
2.62,14.83,15.700
2.63,14.94,15.800
2.65,15.04,15.900
2.67,15.26,16.000
2.68,15.48,16.100
2.7,15.45,16.200
2.72,15.61,16.300
2.73,15.82,16.400
2.75,15.82,16.500
2.77,15.99,16.600
2.78,16.08,16.700
2.8,16.11,16.800
2.82,16.36,16.900
2.83,16.51,17.000
2.85,16.64,17.100
2.87,16.83,17.200
2.88,16.96,17.300
2.9,16.98,17.400
2.92,17.09,17.500
2.93,17.23,17.600
2.95,17.39,17.700
2.97,17.68,17.800
2.98,17.71,17.900
3.0,17.99,18.000
3.02,17.96,18.100
3.03,18.17,18.200
3.05,18.17,18.300
3.07,18.37,18.400
3.08,18.49,18.500
3.1,18.68,18.600
3.12,18.87,18.700
3.13,19.04,18.800
3.15,19.09,18.900
3.17,19.33,19.000
3.18,19.47,19.100
3.2,19.48,19.200
3.22,19.76,19.300
3.23,19.9,19.400
3.25,20.12,19.500
3.27,20.16,19.600
3.28,20.46,19.700
3.3,20.58,19.800
3.32,20.65,19.900
3.33,20.91,20.000
3.35,20.86,20.100
3.37,21.18,20.200
3.38,21.37,20.300
3.4,21.34,20.400
3.42,21.51,20.500
3.43,21.91,20.600
3.45,21.98,20.700
3.47,22.01,20.800
3.48,22.32,20.900
3.5,22.42,21.000
3.52,22.66,21.100
3.53,22.82,21.200
3.55,22.94,21.300
3.57,23.18,21.400
3.58,23.22,21.500
3.6,23.41,21.600
3.62,23.76,21.700
3.63,23.83,21.800
3.65,23.92,21.900
3.67,24.08,22.000
3.68,24.42,22.100
3.7,24.49,22.200
3.72,24.58,22.300
3.73,24.95,22.400
3.75,25.05,22.500
3.77,25.24,22.600
3.78,25.33,22.700
3.8,25.51,22.800
3.82,25.71,22.900
3.83,25.95,23.000
3.85,26.16,23.100
3.87,26.28,23.200
3.88,26.3,23.300
3.9,26.56,23.400
3.92,26.8,23.500
3.93,27.15,23.600
3.95,27.19,23.700
3.97,27.34,23.800
3.98,27.7,23.900
4.0,27.7,24.000
4.02,28.1,24.100
4.03,28.14,24.200
4.05,28.45,24.300
4.07,28.66,24.400
4.08,28.77,24.500
4.1,28.99,24.600
4.12,29.12,24.700
4.13,29.39,24.800
4.15,29.37,24.900
4.17,29.75,25.000
4.18,29.88,25.100
4.2,30.14,25.200
4.22,30.44,25.300
4.23,30.62,25.400
4.25,30.72,25.500
4.27,31.04,25.600
4.28,31.06,25.700
4.3,31.36,25.800
4.32,31.72,25.900
4.33,31.78,26.000
4.35,32.1,26.100
4.37,32.32,26.200
4.38,32.59,26.300
4.4,32.79,26.400
4.42,32.82,26.500
4.43,32.98,26.600
4.45,33.24,26.700
4.47,33.37,26.800
4.48,33.64,26.900
4.5,33.8,27.000
4.52,34.22,27.100
4.53,34.23,27.200
4.55,34.59,27.300
4.57,34.65,27.400
4.58,35.03,27.500
4.6,35.2,27.600
4.62,35.37,27.700
4.63,35.71,27.800
4.65,35.81,27.900
4.67,36.03,28.000
4.68,36.26,28.100
4.7,36.47,28.200
4.72,36.64,28.300
4.73,36.81,28.400
4.75,36.81,28.500
4.77,36.98,28.600
4.78,37.16,28.700
4.8,37.39,28.800
4.82,37.46,28.900
4.83,37.58,29.000
4.85,37.72,29.100
4.87,37.79,29.200
4.88,38.05,29.300
4.9,38.3,29.400
4.92,38.47,29.500
4.93,38.7,29.600
4.95,38.87,29.700
4.97,39.02,29.800
4.98,39.17,29.900
5.0,39.39,30.000
5.02,39.56,30.100
5.03,39.69,30.200
5.05,39.87,30.300
5.07,40.01,30.400
5.08,40.13,30.500
5.1,40.52,30.600
5.12,40.61,30.700
5.13,40.89,30.800
5.15,41.15,30.900
5.17,41.22,31.000
5.18,41.42,31.100
5.2,41.69,31.200
5.22,42.01,31.300
5.23,42.21,31.400
5.25,42.28,31.500
5.27,42.64,31.600
5.28,42.63,31.700
5.3,42.79,31.800
5.32,42.99,31.900
5.33,42.96,32.000
5.35,43.0,32.100
5.37,43.07,32.200
5.38,43.46,32.300
5.4,43.67,32.400
5.42,43.82,32.500
5.43,44.06,32.600
5.45,44.28,32.700
5.47,44.53,32.800
5.48,44.62,32.900
5.5,44.81,33.000
5.52,45.16,33.100
5.53,45.42,33.200
5.55,45.63,33.300
5.57,46.04,33.400
5.58,46.51,33.500
5.6,46.76,33.600
5.62,47.05,33.700
5.63,47.38,33.800
5.65,47.68,33.900
5.67,48.07,34.000
5.68,48.5,34.100
5.7,48.91,34.200
5.72,49.24,34.300
5.73,49.65,34.400
5.75,50.16,34.500
5.77,50.57,34.600
5.78,51.04,34.700
5.8,51.39,34.800
5.82,51.66,34.900
5.83,52.24,35.000
5.85,52.75,35.100
5.87,53.1,35.200
5.88,53.74,35.300
5.9,54.08,35.400
5.92,54.53,35.500
5.93,54.87,35.600
5.95,55.26,35.700
5.97,55.57,35.800
5.98,56.19,35.900
6.0,56.54,36.000
6.02,57.07,36.100
6.03,57.44,36.200
6.05,58.08,36.300
6.07,58.47,36.400
6.08,58.93,36.500
6.1,59.33,36.600
6.12,59.89,36.700
6.13,60.25,36.800
6.15,60.71,36.900
6.17,61.28,37.000
6.18,61.89,37.100
6.2,62.41,37.200
6.22,63.1,37.300
6.23,63.38,37.400
6.25,63.46,37.500
6.27,63.95,37.600
6.28,64.43,37.700
6.3,64.96,37.800
6.32,65.6,37.900
6.33,66.07,38.000
6.35,66.63,38.100
6.37,67.13,38.200
6.38,67.76,38.300
6.4,68.24,38.400
6.42,68.75,38.500
6.43,69.31,38.600
6.45,70.0,38.700
6.47,70.47,38.800
6.48,71.18,38.900
6.5,71.74,39.000
6.52,72.24,39.100
6.53,72.97,39.200
6.55,73.59,39.300
6.57,74.32,39.400
6.58,74.96,39.500
6.6,75.67,39.600
6.62,76.3,39.700
6.63,76.78,39.800
6.65,77.49,39.900
6.67,78.09,40.000
6.68,78.79,40.100
6.7,79.46,40.200
6.72,80.16,40.300
6.73,80.84,40.400
6.75,81.54,40.500
6.77,82.25,40.600
6.78,82.88,40.700
6.8,83.58,40.800
6.82,84.17,40.900
6.83,84.92,41.000
6.85,85.56,41.100
6.87,86.25,41.200
6.88,86.92,41.300
6.9,87.59,41.400
6.92,88.27,41.500
6.93,88.96,41.600
6.95,89.54,41.700
6.97,90.14,41.800
6.98,90.9,41.900
7.0,91.61,42.000
7.02,92.32,42.100
7.03,93.01,42.200
7.05,93.78,42.300
7.07,94.29,42.400
7.08,95.3,42.500
7.1,95.96,42.600
7.12,96.72,42.700
7.13,97.15,42.800
7.15,97.92,42.900
7.17,98.55,43.000
7.18,99.03,43.100
7.2,99.54,43.200
7.22,100.26,43.300
7.23,100.96,43.400
7.25,101.59,43.500
7.27,101.71,43.600
7.28,100.21,43.700
7.3,100.75,43.800
7.32,101.32,43.900
7.33,102.0,44.000
7.35,102.54,44.100
7.37,103.34,44.200
7.38,104.02,44.300
7.4,104.7,44.400
7.42,105.35,44.500
7.43,106.17,44.600
7.45,106.8,44.700
7.47,107.49,44.800
7.48,108.29,44.900
7.5,109.04,45.000
7.52,109.81,45.100
7.53,110.5,45.200
7.55,111.27,45.300
7.57,111.99,45.400
7.58,112.86,45.500
7.6,113.57,45.600
7.62,114.33,45.700
7.63,114.96,45.800
7.65,115.72,45.900
7.67,116.71,46.000
7.68,117.27,46.100
7.7,117.9,46.200
7.72,118.51,46.300
7.73,119.3,46.400
7.75,119.9,46.500
7.77,120.73,46.600
7.78,121.4,46.700
7.8,122.13,46.800
7.82,122.85,46.900
7.83,123.67,47.000
7.85,124.46,47.100
7.87,125.03,47.200
7.88,125.67,47.300
7.9,126.4,47.400
7.92,127.1,47.500
7.93,127.75,47.600
7.95,128.43,47.700
7.97,129.09,47.800
7.98,129.83,47.900
8.0,130.65,48.000
8.02,131.28,48.100
8.03,132.03,48.200
8.05,132.78,48.300
8.07,133.49,48.400
8.08,134.31,48.500
8.1,134.98,48.600
8.12,135.87,48.700
8.13,136.48,48.800
8.15,137.36,48.900
8.17,138.14,49.000
8.18,138.93,49.100
8.2,139.66,49.200
8.22,140.43,49.300
8.23,141.21,49.400
8.25,142.11,49.500
8.27,142.7,49.600
8.28,143.44,49.700
8.3,144.35,49.800
8.32,145.16,49.900
8.33,145.92,50.000
8.35,146.62,50.100
8.37,147.28,50.200
8.38,148.16,50.300
8.4,148.8,50.400
8.42,149.63,50.500
8.43,150.22,50.600
8.45,150.89,50.700
8.47,151.71,50.800
8.48,152.38,50.900
8.5,152.87,51.000
8.52,153.63,51.100
8.53,154.16,51.200
8.55,154.95,51.300
8.57,155.58,51.400
8.58,156.42,51.500
8.6,157.25,51.600
8.62,157.97,51.700
8.63,158.77,51.800
8.65,159.24,51.900
8.67,159.94,52.000
8.68,160.16,52.100
8.7,160.63,52.200
8.72,161.2,52.300
8.73,162.01,52.400
8.75,162.77,52.500
8.77,163.22,52.600
8.78,163.92,52.700
8.8,164.63,52.800
8.82,165.49,52.900
8.83,166.0,53.000
8.85,166.6,53.100
8.87,167.39,53.200
8.88,168.18,53.300
8.9,168.81,53.400
8.92,169.67,53.500
8.93,170.48,53.600
8.95,171.11,53.700
8.97,171.97,53.800
8.98,120.84,53.900
9.0,108.17,54.000
9.02,104.68,54.100
9.03,103.44,54.200
9.05,102.62,54.300
9.07,101.48,54.400
9.08,100.98,54.500
9.1,101.28,54.600
9.12,101.34,54.700
9.13,101.72,54.800
9.15,101.81,54.900
9.17,102.2,55.000
9.18,102.63,55.100
9.2,102.88,55.200
9.22,103.39,55.300
9.23,103.69,55.400
9.25,102.93,55.500
9.27,103.43,55.600
9.28,103.72,55.700
9.3,104.07,55.800
9.32,104.58,55.900
9.33,104.99,56.000
9.35,105.44,56.100
9.37,105.8,56.200
9.38,106.37,56.300
9.4,106.92,56.400
9.42,107.42,56.500
9.43,107.85,56.600
9.45,108.4,56.700
9.47,108.75,56.800
9.48,109.36,56.900
9.5,109.89,57.000
9.52,110.19,57.100
9.53,110.62,57.200
9.55,111.22,57.300
9.57,111.54,57.400
9.58,111.78,57.500
9.6,112.42,57.600
9.62,112.7,57.700
9.63,113.11,57.800
9.65,113.6,57.900
9.67,113.92,58.000
9.68,114.44,58.100
9.7,114.84,58.200
9.72,114.95,58.300
9.73,114.48,58.400
9.75,109.04,58.500
9.77,107.24,58.600
9.78,106.65,58.700
9.8,106.4,58.800
9.82,105.83,58.900
9.83,105.93,59.000
9.85,105.9,59.100
9.87,103.53,59.200
9.88,103.5,59.300
9.9,103.61,59.400
9.92,103.39,59.500
9.93,103.76,59.600
9.95,103.8,59.700
9.97,104.14,59.800
9.98,104.3,59.900
10.0,104.43,60.000
10.02,104.13,60.100
10.03,103.71,60.200
10.05,103.73,60.300
10.07,103.77,60.400
10.08,103.82,60.500
10.1,103.8,60.600
10.12,104.14,60.700
10.13,104.26,60.800
10.15,104.48,60.900
10.17,104.92,61.000
10.18,105.03,61.100
10.2,105.21,61.200
10.22,105.34,61.300
10.23,105.62,61.400
10.25,105.76,61.500
10.27,105.79,61.600
10.28,106.09,61.700
10.3,106.37,61.800
10.32,106.26,61.900
10.33,106.31,62.000
10.35,106.57,62.100
10.37,106.71,62.200
10.38,106.9,62.300
10.4,107.02,62.400
10.42,107.29,62.500
10.43,107.54,62.600
10.45,107.64,62.700
10.47,107.93,62.800
10.48,108.38,62.900
10.5,108.47,63.000
10.52,108.73,63.100
10.53,109.04,63.200
10.55,109.28,63.300
10.57,109.71,63.400
10.58,110.06,63.500
10.6,110.39,63.600
10.62,110.61,63.700
10.63,110.72,63.800
10.65,106.95,63.900
10.67,105.32,64.000
10.68,97.2,64.100
10.7,96.84,64.200
10.72,96.83,64.300
10.73,96.64,64.400
10.75,96.58,64.500
10.77,97.04,64.600
10.78,97.13,64.700
10.8,97.41,64.800
10.82,97.8,64.900
10.83,98.01,65.000
10.85,98.29,65.100
10.87,98.71,65.200
10.88,99.07,65.300
10.9,99.4,65.400
10.92,99.55,65.500
10.93,98.97,65.600
10.95,98.91,65.700
10.97,98.83,65.800
10.98,99.22,65.900
11.0,99.27,66.000
11.02,99.55,66.100
11.03,99.59,66.200
11.05,99.56,66.300
11.07,99.64,66.400
11.08,99.73,66.500
11.1,99.28,66.600
11.12,95.11,66.700
11.13,92.02,66.800
11.15,91.39,66.900
11.17,91.22,67.000
11.18,91.41,67.100
11.2,91.42,67.200
11.22,91.68,67.300
11.23,91.95,67.400
11.25,91.87,67.500
11.27,92.1,67.600
11.28,92.32,67.700
11.3,92.66,67.800
11.32,92.9,67.900
11.33,93.18,68.000
11.35,93.5,68.100
11.37,93.68,68.200
11.38,93.98,68.300
11.4,94.45,68.400
11.42,94.51,68.500
11.43,94.85,68.600
11.45,94.87,68.700
11.47,95.01,68.800
11.48,95.16,68.900
11.5,95.08,69.000
11.52,95.32,69.100
11.53,95.36,69.200
11.55,95.58,69.300
11.57,95.5,69.400
11.58,95.41,69.500
11.6,95.27,69.600
11.62,94.4,69.700
11.63,93.58,69.800
11.65,92.93,69.900
11.67,93.05,70.000
11.68,92.72,70.100
11.7,90.92,70.200
11.72,89.99,70.300
11.73,88.69,70.400
11.75,87.39,70.500
11.77,85.45,70.600
11.78,82.51,70.700
11.8,81.53,70.800
11.82,80.77,70.900
11.83,79.88,71.000
11.85,79.75,71.100
11.87,79.45,71.200
11.88,79.45,71.300
11.9,79.5,71.400
11.92,79.24,71.500
11.93,79.16,71.600
11.95,78.49,71.700
11.97,78.41,71.800
11.98,78.56,71.900
12.0,78.32,72.000
12.02,78.44,72.100
12.03,78.51,72.200
12.05,78.48,72.300
12.07,78.43,72.400
12.08,78.53,72.500
12.1,77.43,72.600
12.12,73.09,72.700
12.13,71.78,72.800
12.15,71.22,72.900
12.17,70.78,73.000
12.18,70.46,73.100
12.2,69.76,73.200
12.22,69.36,73.300
12.23,68.83,73.400
12.25,68.64,73.500
12.27,68.14,73.600
12.28,67.91,73.700
12.3,67.37,73.800
12.32,67.36,73.900
12.33,66.94,74.000
12.35,66.85,74.100
12.37,66.81,74.200
12.38,66.77,74.300
12.4,66.7,74.400
12.42,66.55,74.500
12.43,66.37,74.600
12.45,66.46,74.700
12.47,66.34,74.800
12.48,66.38,74.900
12.5,66.4,75.000
12.52,66.15,75.100
12.53,66.12,75.200
12.55,66.02,75.300
12.57,66.0,75.400
12.58,64.43,75.500
12.6,63.86,75.600
12.62,63.62,75.700
12.63,63.49,75.800
12.65,63.13,75.900
12.67,63.01,76.000
12.68,62.95,76.100
12.7,62.75,76.200
12.72,62.92,76.300
12.73,62.42,76.400
12.75,62.22,76.500
12.77,61.97,76.600
12.78,61.77,76.700
12.8,61.38,76.800
12.82,60.52,76.900
12.83,59.49,77.000
12.85,59.04,77.100
12.87,58.46,77.200
12.88,58.21,77.300
12.9,57.85,77.400
12.92,57.7,77.500
12.93,57.55,77.600
12.95,57.25,77.700
12.97,57.15,77.800
12.98,56.95,77.900
13.0,56.79,78.000
13.02,56.83,78.100
13.03,56.54,78.200
13.05,56.37,78.300
13.07,56.35,78.400
13.08,56.36,78.500
13.1,56.16,78.600
13.12,55.99,78.700
13.13,55.97,78.800
13.15,55.86,78.900
13.17,55.93,79.000
13.18,55.81,79.100
13.2,55.92,79.200
13.22,55.89,79.300
13.23,55.66,79.400
13.25,55.64,79.500
13.27,55.63,79.600
13.28,55.52,79.700
13.3,55.64,79.800
13.32,55.57,79.900
13.33,55.22,80.000
13.35,55.36,80.100
13.37,55.28,80.200
13.38,54.86,80.300
13.4,54.89,80.400
13.42,54.6,80.500
13.43,54.51,80.600
13.45,54.47,80.700
13.47,54.25,80.800
13.48,53.78,80.900
13.5,53.63,81.000
13.52,53.49,81.100
13.53,53.17,81.200
13.55,53.09,81.300
13.57,52.95,81.400
13.58,53.04,81.500
13.6,52.81,81.600
13.62,52.86,81.700
13.63,52.65,81.800
13.65,52.57,81.900
13.67,52.32,82.000
13.68,52.32,82.100
13.7,52.11,82.200
13.72,52.02,82.300
13.73,51.69,82.400
13.75,51.59,82.500
13.77,51.35,82.600
13.78,51.1,82.700
13.8,50.88,82.800
13.82,50.77,82.900
13.83,50.61,83.000
13.85,50.62,83.100
13.87,50.29,83.200
13.88,50.1,83.300
13.9,49.87,83.400
13.92,49.68,83.500
13.93,49.44,83.600
13.95,49.07,83.700
13.97,48.84,83.800
13.98,48.66,83.900
14.0,48.36,84.000
14.02,48.24,84.100
14.03,48.12,84.200
14.05,47.91,84.300
14.07,47.78,84.400
14.08,47.74,84.500
14.1,47.62,84.600
14.12,47.49,84.700
14.13,47.49,84.800
14.15,47.41,84.900
14.17,47.06,85.000
14.18,47.09,85.100
14.2,46.97,85.200
14.22,46.69,85.300
14.23,46.54,85.400
14.25,46.53,85.500
14.27,46.53,85.600
14.28,46.29,85.700
14.3,46.16,85.800
14.32,46.04,85.900
14.33,46.06,86.000
14.35,45.76,86.100
14.37,45.63,86.200
14.38,45.51,86.300
14.4,45.34,86.400
14.42,45.33,86.500
14.43,45.16,86.600
14.45,45.24,86.700
14.47,45.14,86.800
14.48,45.25,86.900
14.5,44.98,87.000
14.52,44.87,87.100
14.53,44.63,87.200
14.55,44.69,87.300
14.57,44.66,87.400
14.58,44.46,87.500
14.6,44.35,87.600
14.62,44.4,87.700
14.63,44.4,87.800
14.65,44.13,87.900
14.67,44.01,88.000
14.68,44.16,88.100
14.7,44.03,88.200
14.72,43.83,88.300
14.73,43.86,88.400
14.75,43.9,88.500
14.77,43.93,88.600
14.78,43.69,88.700
14.8,43.55,88.800
14.82,43.46,88.900
14.83,43.07,89.000
14.85,42.77,89.100
14.87,42.04,89.200
14.88,41.38,89.300
14.9,40.92,89.400
14.92,40.65,89.500
14.93,40.22,89.600
14.95,40.24,89.700
14.97,39.72,89.800
14.98,39.47,89.900
15.0,39.42,90.000
15.02,39.14,90.100
15.03,39.06,90.200
15.05,38.99,90.300
15.07,38.77,90.400
15.08,38.71,90.500
15.1,38.36,90.600
15.12,38.27,90.700
15.13,37.94,90.800
15.15,37.57,90.900
15.17,37.37,91.000
15.18,37.11,91.100
15.2,36.72,91.200
15.22,36.73,91.300
15.23,36.4,91.400
15.25,36.23,91.500
15.27,36.16,91.600
15.28,35.91,91.700
15.3,35.66,91.800
15.32,35.5,91.900
15.33,35.36,92.000
15.35,35.33,92.100
15.37,35.17,92.200
15.38,35.09,92.300
15.4,34.97,92.400
15.42,34.73,92.500
15.43,34.63,92.600
15.45,34.69,92.700
15.47,34.34,92.800