File: Selected_data/SSP_2025-03-20_D13_OPER.csv
Crossheadmm,LoadN,Timesec
0.034,0.10522,0.113
0.0673,0.245786,0.213
0.1008,0.527943,0.313
0.1343,0.618314,0.413
0.1677,0.509494,0.513
0.2009,0.475392,0.613
0.2342,0.556632,0.713
0.2676,0.48104,0.813
0.3009,0.527574,0.913
0.3343,0.602141,1.013
0.3675,0.721628,1.113
0.4008,0.619888,1.213
0.4343,0.801596,1.313
0.4676,0.846936,1.413
0.5008,0.6633,1.513
0.5341,0.772776,1.613
0.5675,1.05406,1.713
0.6009,0.882234,1.813
0.634,0.94043,1.913
0.6673,1.19075,2.013
0.7007,0.887936,2.113
0.7343,0.976696,2.213
0.7676,1.00967,2.313
0.8008,1.1274,2.413
0.8342,1.24708,2.513
0.8676,1.20461,2.613
0.9008,1.05875,2.713
0.9341,1.1937,2.813
0.9674,1.38868,2.913
1.0008,1.43142,3.013
1.0342,1.54552,3.113
1.0674,1.53007,3.213
1.1007,1.48798,3.313
1.1339,1.75057,3.413
1.1673,1.6998,3.513
1.2007,1.81388,3.613
1.2342,1.8506,3.713
1.2675,1.81512,3.813
1.3008,2.22057,3.913
1.3342,2.20206,4.013
1.3675,2.09177,4.113
1.4007,2.30423,4.213
1.4341,2.19572,4.313
1.4675,2.36962,4.413
1.501,2.23835,4.513
1.534,2.42263,4.613
1.5672,2.55624,4.713
1.6005,2.68232,4.813
1.6338,2.56823,4.913
1.6672,2.92413,5.013
1.7007,2.9328,5.113
1.7339,3.17965,5.213
1.7672,3.18892,5.313
1.8006,3.21462,5.413
1.834,3.48942,5.513
1.8672,3.62894,5.613
1.9004,3.73175,5.713
1.9339,3.82009,5.813
1.9673,4.04322,5.913
2.0006,4.23281,6.013
2.034,4.41111,6.113
2.0674,4.68471,6.213
2.1005,4.95048,6.313
2.1338,5.05358,6.413
2.1672,5.20325,6.513
2.2006,5.51237,6.613
2.2339,5.68171,6.713
2.2673,5.80293,6.813
2.3006,6.25498,6.913
2.334,6.5658,7.013
2.3674,6.93449,7.113
2.4005,7.31445,7.213
2.4338,7.83594,7.313
2.4671,7.96604,7.413
2.5006,7.97987,7.513
2.5339,8.78265,7.613
2.5673,9.01095,7.713
2.6006,9.37807,7.813
2.6339,9.93555,7.913
2.6673,10.4326,8.013
2.7007,11.0328,8.113
2.734,11.3945,8.213
2.7672,11.9766,8.313
2.8005,12.5464,8.413
2.834,13.1712,8.513
2.8673,13.7136,8.613
2.9004,14.3355,8.713
2.9338,14.6369,8.813
2.9672,15.1913,8.913
3.0006,15.9984,9.013
3.0337,16.6235,9.113
3.0669,17.1497,9.213
3.1004,17.716,9.313
3.134,18.4363,9.413
3.1673,19.1872,9.513
3.2006,19.8401,9.613
3.234,20.6351,9.713
3.2674,21.2765,9.813
3.3006,21.9027,9.913
3.3339,22.6569,10.013
3.3672,23.5423,10.113
3.4006,24.2452,10.213
3.434,25.0605,10.313
3.4673,25.7651,10.413
3.5006,26.7473,10.513
3.5338,27.5244,10.613
3.5672,28.4329,10.713
3.6006,29.1698,10.813
3.634,29.9608,10.913
3.6674,30.8295,11.013
3.7007,31.7557,11.113
3.7341,32.6906,11.213
3.7675,33.6329,11.313
3.8008,34.4695,11.413
3.8341,35.4587,11.513
3.8676,36.3772,11.613
3.901,37.3961,11.713
3.934,38.3221,11.813
3.9672,39.3621,11.913
4.0006,40.2456,12.013
4.034,41.3214,12.113
4.0674,42.3342,12.213
4.101,43.2538,12.313
4.1342,44.1616,12.413
4.1674,45.2653,12.513
4.2009,46.0935,12.613
4.2343,47.3903,12.713
4.2676,48.2588,12.813
4.3008,49.3745,12.913
4.3342,50.2808,13.013
4.3677,51.0431,13.113
4.4009,52.1156,13.213
4.4343,53.2141,13.313
4.4676,54.3568,13.413
4.5008,55.3875,13.513
4.5341,56.4617,13.613
4.5676,57.8518,13.713
4.6009,58.8136,13.813
4.6343,60.0925,13.913
4.6675,61.3187,14.013
4.7009,62.5598,14.113
4.7343,63.5944,14.213
4.7677,64.7174,14.313
4.8009,66.174,14.413
4.8341,67.0933,14.513
4.8675,68.4035,14.613
4.9009,69.742,14.713
4.9342,70.6057,14.813
4.9675,71.7829,14.913
5.0008,72.479,15.013
5.0342,73.7516,15.113
5.0676,74.3395,15.213
5.101,70.7226,15.313
5.1343,67.4352,15.413
5.1675,66.854,15.513
5.2008,63.3786,15.613
5.2341,63.5636,15.713
5.2675,64.1741,15.813
5.3007,65.2781,15.913
5.3341,66.0167,16.013
5.3675,63.7252,16.113
5.4008,64.5526,16.213
5.434,57.193,16.313
5.4671,54.7532,16.413
5.5006,49.665,16.513
5.5342,49.3837,16.613
5.5675,50.4483,16.713
5.6008,51.8191,16.813
5.6342,53.4284,16.913
5.6675,54.4618,17.013
5.7007,55.8452,17.113
5.7339,57.1506,17.213
5.7672,58.6021,17.313
5.8006,59.9181,17.413
5.834,61.2498,17.513
5.8673,62.2965,17.613
5.9005,63.4596,17.713
5.9337,64.6803,17.813
5.9673,65.8954,17.913
6.0005,67.2395,18.013
6.0338,68.4003,18.113
6.0673,69.4768,18.213
6.1007,70.8299,18.313
6.134,71.8103,18.413
6.1673,72.9076,18.513
6.2007,73.9677,18.613
6.234,74.3255,18.713
6.2674,75.1469,18.813
6.3008,76.2771,18.913
6.3337,76.1926,19.013
6.3671,77.1664,19.113
6.4004,77.0376,19.213
6.4337,76.4413,19.313
6.4672,76.6284,19.413
6.5007,77.9042,19.513
6.5338,79.8117,19.613
6.5671,81.525,19.713
6.6007,82.53,19.813
6.6339,82.3847,19.913
6.6672,83.4397,20.013
6.7005,85.2237,20.113
6.7339,87.1511,20.213
6.7672,88.5006,20.313
6.8005,90.2771,20.413
6.8338,91.8188,20.513
6.8673,92.6472,20.613
6.9004,94.1227,20.713
6.9338,95.6789,20.813
6.9671,97.2422,20.913
7.0005,98.7727,21.013
7.0338,98.6784,21.113
7.0671,99.7049,21.213
7.1005,101.028,21.313
7.1339,100.836,21.413
7.1672,102.062,21.513
7.2005,103.539,21.613
7.2337,104.877,21.713
7.2672,106.277,21.813
7.3005,106.693,21.913
7.3338,107.487,22.013
7.3671,108.348,22.113
7.4004,109.885,22.213
7.4338,111.007,22.313
7.4671,111.391,22.413
7.5006,112.636,22.513
7.5339,114.149,22.613
7.5671,115.595,22.713
7.6003,116.929,22.813
7.6337,117.813,22.913
7.6671,119.023,23.013
7.7004,120.626,23.113
7.7338,122.122,23.213
7.7672,123.103,23.313
7.8005,124.693,23.413
7.8338,125.996,23.513
7.8669,127.806,23.613
7.9004,129.411,23.713
7.934,131.222,23.813
7.9673,133.097,23.913
8.0006,134.856,24.013
8.0341,136.31,24.113
8.0674,138.281,24.213
8.1006,138.833,24.313
8.1338,140.389,24.413
8.1672,141.492,24.513
8.2007,143.048,24.613
8.234,144.638,24.713
8.2674,145.789,24.813
8.3006,147.604,24.913
8.3339,149.245,25.013
8.3674,150.68,25.113
8.4007,150.991,25.213
8.4339,149.778,25.313
8.4675,149.089,25.413
8.5007,142.504,25.513
8.5342,142.467,25.613
8.5675,137.746,25.713
8.6008,138.23,25.813
8.6342,139.478,25.913
8.6676,140.913,26.013
8.7009,142.465,26.113
8.7339,143.295,26.213
8.7672,144.191,26.313
8.8007,145.871,26.413
8.834,147.533,26.513
8.8674,149.177,26.613
8.9009,150.838,26.713
8.9339,152.53,26.813
8.9673,154.061,26.913
9.0009,154.239,27.013
9.0341,154.205,27.113
9.0675,153.868,27.213
9.1009,153.038,27.313
9.1342,149.332,27.413
9.1676,145.729,27.513
9.2008,144.114,27.613
9.2341,143.27,27.713
9.2675,142.615,27.813
9.3007,142.502,27.913
9.3341,143.039,28.013
9.3676,143.831,28.113
9.4008,143.799,28.213
9.4342,143.279,28.313
9.4674,136.95,28.413
9.5007,136.66,28.513
9.5341,136.455,28.613
9.5675,136.442,28.713
9.6008,137.032,28.813
9.6341,136.549,28.913
9.6674,136.994,29.013
9.7009,136.083,29.113
9.7341,134.065,29.213
9.7673,104.232,29.313
9.8007,86.006,29.413
9.8341,83.1631,29.513
9.8675,82.5829,29.613
9.901,82.0274,29.713
9.9342,81.4736,29.813
9.9675,81.2286,29.913
10.0007,81.1673,30.013
10.0339,81.2478,30.113
10.0673,80.2719,30.213
10.1006,79.6443,30.313
10.134,75.2837,30.413
10.1674,73.6289,30.513
10.2007,72.5483,30.613
10.2339,71.2746,30.713
10.2669,70.7457,30.813
10.3004,69.8329,30.913
10.3341,69.4531,31.013
10.3673,69.2003,31.113
10.4007,69.1912,31.213
10.4341,68.8118,31.313
10.4674,68.2014,31.413
10.5007,67.9927,31.513
10.5339,67.1734,31.613
10.5671,65.7898,31.713
10.6007,65.0356,31.813
10.6339,64.3317,31.913
10.6673,64.2003,32.013
10.7006,63.7249,32.113
10.7338,63.0939,32.213
10.7674,62.9167,32.313
10.8006,62.2547,32.413
10.8338,61.3714,32.513
10.8673,59.7631,32.613
10.9007,58.6517,32.713
10.934,58.2903,32.813
10.9673,57.8753,32.913
11.0006,57.7019,33.013
11.034,57.7619,33.113
11.0674,57.1537,33.213
11.1007,49.7022,33.313
11.1337,48.8859,33.413
11.1669,48.5561,33.513
11.2005,47.9097,33.613
11.2338,47.701,33.713
11.2673,47.6628,33.813
11.3007,47.5605,33.913
11.3336,46.5498,34.013
11.367,46.2849,34.113
11.4007,46.0577,34.213
11.4338,45.6633,34.313
11.4672,45.3924,34.413
11.5007,44.7861,34.513
11.5339,44.6892,34.613
11.5673,43.9483,34.713
11.6006,43.6943,34.813
11.6337,43.4206,34.913
11.6672,43.3285,35.013
11.7003,43.1684,35.113
11.7338,42.8297,35.213
11.7672,42.5531,35.313
11.8005,42.2258,35.413
11.8339,42.1126,35.513
11.8671,42.0585,35.613
11.9004,41.9378,35.713
11.9338,41.9411,35.813
11.9672,41.6905,35.913
12.0005,41.1614,36.013
12.0338,41.0952,36.113
12.0672,40.9433,36.213
12.1006,40.9394,36.313
12.1339,40.9057,36.413
12.1671,41.0771,36.513
12.2005,40.1459,36.613
12.2339,39.0025,36.713
12.2673,38.5489,36.813
12.3008,38.373,36.913
12.334,38.3698,37.013
12.3673,38.1886,37.113
12.4006,38.0722,37.213
12.4337,38.292,37.313
12.4671,38.2006,37.413
12.5006,38.0696,37.513
12.534,38.257,37.613
12.5674,37.7446,37.713
12.6007,37.8491,37.813
12.6339,37.6426,37.913
12.6671,37.2636,38.013
12.7005,37.6209,38.113
12.7341,37.5378,38.213
12.7674,37.545,38.313
12.8008,37.6422,38.413
12.8343,33.2153,38.513
12.8675,32.1624,38.613
12.9008,31.8854,38.713
12.934,31.8609,38.813
12.9673,31.511,38.913
13.0007,31.598,39.013
13.034,31.5187,39.113
13.0674,31.2975,39.213
13.1008,31.114,39.313
13.1341,30.6595,39.413
13.1676,30.8483,39.513
13.2008,30.4914,39.613
13.234,30.5316,39.713
13.2674,30.5534,39.813
13.3009,30.2981,39.913
13.3343,30.1946,40.013
13.3676,30.152,40.113
13.4009,30.1522,40.213
13.4344,30.1155,40.313
13.4677,29.9202,40.413
13.5009,29.9042,40.513
13.5339,29.79,40.613
13.5672,29.8068,40.713
13.6008,29.8088,40.813
13.6342,29.592,40.913
13.6677,29.6899,41.013
13.701,29.6515,41.113
13.734,29.7856,41.213
13.7673,29.6584,41.313
13.8009,29.8777,41.413
13.8341,29.7142,41.513
13.8676,29.9168,41.613
13.901,29.7218,41.713
13.9343,29.6591,41.813
13.9677,29.558,41.913
14.0009,29.4952,42.013
14.0341,29.423,42.113
14.0674,29.2245,42.213
14.1008,29.0696,42.313
14.1342,28.7198,42.413
14.1676,28.8296,42.513
14.2009,28.7997,42.613
14.2343,28.9869,42.713
14.2675,28.6768,42.813
14.3007,28.6289,42.913
14.3341,28.7879,43.013
14.3675,28.1629,43.113
14.4008,28.1478,43.213
14.4341,28.0913,43.313
14.4675,28.253,43.413
14.5009,28.1702,43.513
14.5342,28.0426,43.613
14.5674,27.9502,43.713
14.6006,27.9019,43.813
14.6342,27.9847,43.913
14.6676,27.8737,44.013
14.7011,27.8244,44.113
14.7342,27.7368,44.213
14.7675,27.7583,44.313
14.8008,27.7436,44.413
14.8339,27.9574,44.513
14.8672,27.8732,44.613
14.9007,27.8857,44.713
14.9341,27.7622,44.813
14.9676,24.4502,44.913
15.0007,24.0253,45.013
15.0339,23.967,45.113
15.0671,23.9659,45.213
15.1005,23.9144,45.313
15.134,23.9462,45.413
15.1673,24.0747,45.513
15.2008,23.633,45.613
15.2342,23.3733,45.713
15.2674,23.2825,45.813
15.3007,23.1516,45.913
15.3339,23.1418,46.013
15.3671,22.7297,46.113
15.4006,22.7404,46.213
15.4339,22.7315,46.313
15.4673,22.9302,46.413
15.5005,22.8418,46.513
15.5339,22.9614,46.613
15.5674,22.884,46.713
15.6005,22.8224,46.813
15.6337,22.8904,46.913
15.6672,22.7393,47.013
15.7007,22.7596,47.113
15.734,21.6756,47.213
15.7673,20.7534,47.313
15.8006,19.9787,47.413
15.8341,20.0868,47.513
15.8673,20.1369,47.613
15.9004,20.1266,47.713
15.9335,20.1748,47.813
15.9669,20.1251,47.913
16.0004,20.0753,48.013
16.0339,19.9189,48.113
16.0674,20.0901,48.213
16.1006,20.3363,48.313
16.1336,20.2601,48.413
16.167,20.0202,48.513
16.2005,20.0744,48.613
16.2338,19.864,48.713
16.2671,19.964,48.813
16.3006,20.0112,48.913
16.334,19.7923,49.013
16.3674,19.6643,49.113
16.4006,19.6368,49.213
16.4338,19.4466,49.313
16.4671,19.5687,49.413
16.5005,19.435,49.513
16.5339,19.4662,49.613
16.5673,19.2535,49.713
16.6007,19.3197,49.813
16.634,19.2908,49.913
16.6672,19.3231,50.013
16.7005,19.2647,50.113
16.7339,19.2503,50.213
16.7673,19.4101,50.313
16.8006,19.3745,50.413
16.8339,19.4015,50.513
16.8673,19.2802,50.613
16.9007,19.2001,50.713
16.9339,19.323,50.813
16.9671,19.2362,50.913
17.0005,18.9122,51.013
17.034,18.7947,51.113
17.0674,18.5618,51.213
17.1008,18.82,51.313
17.1341,18.6018,51.413
17.1673,18.835,51.513
17.2006,18.7468,51.613
17.2338,18.7415,51.713
17.2671,18.3876,51.813
17.3006,18.5693,51.913
17.334,18.8557,52.013
17.3675,18.5555,52.113
17.4007,18.807,52.213
17.4339,18.9108,52.313
17.4671,18.8804,52.413
17.5007,18.8021,52.513
17.534,18.7671,52.613
17.5674,19.0114,52.713
17.6008,18.8564,52.813
17.6343,17.1595,52.913
17.6676,17.0933,53.013
17.7008,17.1255,53.113
17.734,17.1498,53.213
17.7673,17.3885,53.313
17.8007,17.4915,53.413
17.8341,17.5135,53.513
17.8675,17.4647,53.613
17.9008,17.5829,53.713
17.9342,17.5536,53.813
17.9676,17.843,53.913
18.0008,17.8505,54.013
18.034,17.9066,54.113
18.0674,17.8421,54.213
18.1009,17.9927,54.313
18.1343,17.8428,54.413
18.1676,17.9386,54.513
18.201,17.8005,54.613
18.2345,18.341,54.713
18.2677,18.0246,54.813
18.3006,18.1326,54.913
18.3339,18.1172,55.013
18.3673,18.3699,55.113
18.4008,18.4232,55.213
18.4342,18.291,55.313
18.4679,18.2921,55.413
18.501,18.124,55.513
18.5341,17.6179,55.613
18.5674,17.278,55.713
18.6008,17.3323,55.813
18.6342,17.1889,55.913
18.6676,17.1173,56.013
18.701,17.3395,56.113
18.7345,16.8552,56.213
18.7677,16.6605,56.313
18.8009,16.7945,56.413
18.8341,16.7118,56.513
18.8673,16.7623,56.613
18.9007,16.9456,56.713
18.9343,16.7266,56.813
18.9676,16.7639,56.913
19.001,16.4186,57.013
19.0343,16.2582,57.113
19.0675,15.6797,57.213
19.1007,15.8342,57.313
19.1341,15.7477,57.413
19.1675,15.7752,57.513
19.2008,16.0359,57.613
19.2341,15.9906,57.713
19.2676,16.0712,57.813
19.3009,16.168,57.913
19.3341,16.1849,58.013
19.3673,16.1736,58.113
19.4006,16.0754,58.213
19.4341,15.7501,58.313
19.4676,15.5118,58.413
19.501,15.6056,58.513
19.5342,15.4018,58.613
19.5675,15.3688,58.713
19.6007,15.4503,58.813
19.6339,15.4488,58.913
19.667,15.6317,59.013
19.7006,15.6453,59.113
19.734,15.6376,59.213
19.7674,15.3579,59.313
19.8006,15.298,59.413
19.8338,15.4255,59.513
19.867,15.2512,59.613
19.9005,15.2817,59.713
19.9338,15.1442,59.813
19.9672,14.9346,59.913
20.0006,14.6711,60.013
20.034,14.4408,60.113
20.0673,14.2015,60.213
20.1005,13.935,60.313
20.1337,13.9636,60.413
20.167,14.0225,60.513
20.2003,13.9084,60.613
20.2337,13.8265,60.713
20.2671,13.7524,60.813
20.3004,13.7302,60.913
20.334,13.6893,61.013
20.3673,13.5579,61.113
20.4005,13.6511,61.213
20.4337,13.2921,61.313
20.4671,13.4467,61.413
20.5005,13.3088,61.513
20.534,13.289,61.613
20.5673,13.2333,61.713
20.6007,13.3055,61.813
20.6341,13.3172,61.913
20.6674,13.4063,62.013
20.7002,13.0199,62.113
20.7335,13.1837,62.213
20.7671,13.232,62.313
20.8004,12.6277,62.413
20.8339,12.9795,62.513
20.8675,12.99,62.613
20.9006,13.0251,62.713
20.9337,12.9126,62.813
20.9672,12.9806,62.913
21.0005,12.8364,63.013
21.034,12.8811,63.113
21.0673,12.9326,63.213
21.1007,13.066,63.313
21.1342,12.9812,63.413
21.1674,13.0842,63.513
21.2006,13.1283,63.613
21.2339,12.9297,63.713
21.267,12.9663,63.813
21.3005,12.9795,63.913
21.334,13.0462,64.013
21.3673,12.8309,64.113
21.4007,12.7071,64.213
21.434,13.0228,64.313
21.4672,13.0449,64.413
21.5005,13.1522,64.513
21.5338,13.2076,64.613
21.5672,13.069,64.713
21.6006,13.3196,64.813
21.634,13.4686,64.913
21.6675,13.4254,65.013
21.7008,13.5448,65.113
21.734,13.58,65.213
21.7672,13.3709,65.313
21.8005,13.5161,65.413
21.834,13.4545,65.513
21.8676,13.5853,65.613
21.9009,13.6992,65.713
21.9342,13.6604,65.813
21.9674,13.7126,65.913
22.0007,13.7499,66.013
22.0339,13.589,66.113
22.0672,13.8448,66.213
22.1006,13.611,66.313
22.1341,13.8335,66.413
22.1675,13.8496,66.513
22.2008,13.8475,66.613
22.2339,13.5783,66.713
22.2673,13.936,66.813
22.3008,13.9966,66.913
22.334,14.2008,67.013
22.3674,14.0937,67.113
22.401,14.1876,67.213
22.4344,14.3645,67.313
22.4677,14.4086,67.413
22.5009,14.4664,67.513
22.5341,14.3104,67.613
22.5674,14.5595,67.713
22.6007,14.6565,67.813
22.634,14.8606,67.913
22.6675,15.0774,68.013
22.7007,15.0864,68.113
22.7343,15.0599,68.213
22.7676,14.9521,68.313
22.8008,15.2459,68.413
22.8341,15.2393,68.513
22.8674,15.2589,68.613
22.9009,15.3054,68.713
22.9343,14.9304,68.813
22.9677,14.6438,68.913
23.0011,14.634,69.013
23.0346,14.5517,69.113
23.0678,14.6143,69.213
23.1006,14.5434,69.313
23.1338,14.5402,69.413
23.1673,14.5996,69.513
23.2008,14.5445,69.613
23.2343,14.6833,69.713
23.2679,14.6169,69.813
23.3009,14.7491,69.913
23.3341,14.7371,70.013
23.3675,14.6976,70.113
23.4007,14.7655,70.213
23.4342,14.6279,70.313
23.4676,14.6764,70.413
23.501,14.552,70.513
23.5345,14.2591,70.613
23.5677,14.4091,70.713
23.6009,14.3181,70.813
23.6342,14.4343,70.913
23.6672,14.2715,71.013
23.7006,14.1448,71.113
23.7342,13.8909,71.213
23.7676,13.867,71.313
23.8009,13.9278,71.413
23.8342,14.1094,71.513
23.8675,14.0426,71.613
23.9007,14.2286,71.713
23.934,14.2146,71.813
23.9673,14.4029,71.913
24.0008,14.5069,72.013
24.0342,14.5708,72.113
24.0676,14.5453,72.213
24.1009,14.7831,72.313
24.1341,14.6612,72.413
24.1672,14.8304,72.513
24.2005,14.9188,72.613
24.2339,14.9324,72.713
24.2675,14.9445,72.813
24.3008,14.899,72.913
24.3341,15.0111,73.013
24.3673,14.9641,73.113
24.4005,15.1076,73.213
24.4338,15.0879,73.313
24.467,15.1457,73.413
24.5004,15.2923,73.513
24.5339,15.282,73.613
24.5673,15.2767,73.713
24.6005,15.2661,73.813
24.6336,15.4634,73.913
24.6671,15.3384,74.013
24.7005,15.3343,74.113
24.7336,15.3896,74.213
24.7671,15.4497,74.313
24.8006,15.3806,74.413
24.834,15.2144,74.513
24.8673,15.2991,74.613
24.9005,15.5942,74.713
24.9338,15.5313,74.813
24.9671,15.4025,74.913
25.0004,15.2939,75.013
25.0337,15.1595,75.113
25.0671,13.3093,75.213
25.1004,13.1375,75.313
25.134,13.3389,75.413
25.1672,13.0053,75.513
25.2005,12.9266,75.613
25.2338,13.1011,75.713
25.2671,12.9461,75.813
25.3005,13.1812,75.913
25.3341,13.0313,76.013
25.3673,13.0977,76.113
25.4008,13.3039,76.213
25.4341,13.1244,76.313
25.4675,13.0723,76.413
25.5002,12.9389,76.513
25.5335,12.5999,76.613
25.567,12.498,76.713
25.6005,12.3679,76.813
25.6341,12.1661,76.913
25.6675,12.3026,77.013
25.7005,11.9988,77.113
25.7339,11.7634,77.213
25.7673,11.8116,77.313
25.8004,11.7774,77.413
25.8339,11.7226,77.513
25.8674,11.6414,77.613
25.9008,11.8713,77.713
25.9342,11.6243,77.813
25.9675,11.6138,77.913
26.0007,11.5223,78.013
26.0339,11.3227,78.113
26.067,11.4631,78.213
26.1004,11.6141,78.313
26.134,11.5322,78.413
26.1674,11.7185,78.513
26.2008,11.6377,78.613
26.234,11.6254,78.713
26.2673,11.7378,78.813
26.3006,11.8379,78.913
26.3338,11.9236,79.013
26.3671,11.8465,79.113
26.4006,11.9612,79.213
26.4341,11.9612,79.313
26.4675,12.0317,79.413
26.5008,11.9967,79.513
26.534,11.9823,79.613
26.5672,11.9703,79.713
26.6005,12.0749,79.813
26.6339,12.0255,79.913
26.6676,12.057,80.013
26.7008,12.136,80.113
26.7341,12.1881,80.213
26.7675,12.131,80.313
26.8007,11.9853,80.413
26.8339,12.1793,80.513
26.8672,12.0661,80.613
26.9006,12.0812,80.713
26.9342,12.0513,80.813
26.9675,12.1023,80.913
27.0008,12.0561,81.013
27.0339,11.851,81.113
27.0674,11.8275,81.213
27.1008,11.5145,81.313
27.134,10.9308,81.413
27.1674,10.7231,81.513
27.201,10.6756,81.613
27.2343,10.6461,81.713
27.2677,10.5993,81.813
27.3009,10.638,81.913
27.3341,10.4877,82.013
27.3674,10.5329,82.113
27.4007,10.6741,82.213
27.434,10.6878,82.313
27.4675,10.5803,82.413
27.5008,10.48,82.513
27.5344,10.8134,82.613
27.5677,10.6813,82.713
27.6009,10.4366,82.813
27.6341,10.3805,82.913
27.6674,10.4172,83.013
27.7008,10.2824,83.113
27.7343,10.3622,83.213
27.7677,10.4201,83.313
27.8011,10.3289,83.413
27.8346,10.4158,83.513
27.8677,10.2138,83.613
27.9007,10.545,83.713
27.9338,10.4931,83.813
27.9673,10.5573,83.913
28.0008,10.56,84.013
28.0344,10.6752,84.113
28.0678,10.663,84.213
28.1008,10.5625,84.313
28.1341,10.6497,84.413
28.1676,10.9053,84.513
28.2006,10.8787,84.613
28.234,10.6914,84.713
28.2676,10.7603,84.813
28.3009,10.7523,84.913
28.3344,10.7289,85.013
28.3676,10.7078,85.113
28.4007,10.7355,85.213
28.434,10.6663,85.313
28.4671,10.8177,85.413
28.5005,10.5969,85.513
28.5342,10.7311,85.613
28.5675,10.6558,85.713
28.6009,10.7084,85.813
28.6341,10.5622,85.913
28.6674,10.7157,86.013
28.7007,10.6085,86.113
28.7339,10.5844,86.213
28.7671,10.5352,86.313
28.8007,10.5715,86.413
28.8341,10.6178,86.513
28.8675,10.7087,86.613
28.9008,10.691,86.713
28.934,10.6668,86.813
28.9671,10.5331,86.913
29.0004,10.5278,87.013
29.0338,10.5815,87.113
29.0675,10.6181,87.213
29.1008,10.3541,87.313
29.134,10.4834,87.413
29.1674,10.541,87.513
29.2005,10.4164,87.613
29.2337,10.4085,87.713
29.267,10.444,87.813
29.3004,10.4462,87.913
29.334,10.401,88.013
29.3673,10.3845,88.113
29.4005,10.5408,88.213
29.4337,10.5101,88.313
29.4671,10.3444,88.413
29.5006,10.2364,88.513
29.5336,10.1202,88.613
29.5671,10.0161,88.713
29.6007,6.53801,88.813
29.634,6.33712,88.913
29.6673,6.01349,89.013
29.7005,6.31514,89.113
29.7338,6.22564,89.213
29.7671,5.96552,89.313
29.8003,6.12354,89.413
29.8337,6.03491,89.513
29.8671,6.15736,89.613
29.9005,6.07494,89.713
29.934,6.30132,89.813
29.9673,6.08377,89.913
30.0005,6.38766,90.013
30.0338,6.36971,90.113
30.0672,6.26489,90.213
30.1005,6.33042,90.313
30.1339,6.33032,90.413
30.1673,6.4771,90.513
30.2008,6.39961,90.613
30.2342,6.47172,90.713
30.2674,6.40557,90.813
30.3004,6.41501,90.913
30.3336,6.6061,91.013
30.367,6.35573,91.113
30.4005,6.5346,91.213
30.4342,6.61167,91.313
30.4675,6.37486,91.413
30.5006,6.57454,91.513
30.534,6.61731,91.613
30.5673,6.3717,91.713
30.6004,6.28932,91.813
30.6338,6.53148,91.913
30.6674,6.2026,92.013
30.7008,6.26655,92.113
30.7343,6.15575,92.213
30.7675,6.13481,92.313
30.8007,5.85711,92.413
30.8339,5.9727,92.513
30.8671,6.14502,92.613
30.9005,6.00965,92.713
30.9341,5.98292,92.813
30.9675,6.21224,92.913
31.0009,6.01891,93.013
31.0342,6.02798,93.113
31.0673,6.27194,93.213
31.1007,6.06631,93.313
31.1339,6.29101,93.413
31.1672,6.28394,93.513
31.2007,6.32426,93.613
31.2342,6.29349,93.713
31.2676,6.51943,93.813
31.3009,6.28171,93.913
31.3341,6.35608,94.013
31.3674,6.41029,94.113
31.4007,6.43735,94.213
31.4341,6.27604,94.313
31.4676,6.72674,94.413
31.5009,6.36414,94.513
31.5342,6.56274,94.613
31.5676,6.57274,94.713
31.6008,6.5596,94.813
31.634,6.65072,94.913
31.6674,6.7329,95.013
31.7007,6.74363,95.113
31.7343,6.71681,95.213
31.7676,6.73825,95.313
31.8009,6.74161,95.413
31.8341,6.6542,95.513
31.8676,6.739,95.613
31.9009,6.67395,95.713
31.9341,6.71966,95.813
31.9675,6.96239,95.913
32.0009,6.87102,96.013
32.0343,6.8264,96.113
32.0677,6.88817,96.213
32.1009,6.94641,96.313
32.1342,6.86364,96.413
32.1675,6.95301,96.513
32.2007,6.97031,96.613
32.2341,7.05067,96.713
32.2673,6.68875,96.813
32.3009,6.96442,96.913
32.3344,6.62413,97.013
32.3676,6.64216,97.113
32.4008,6.41434,97.213
32.4342,6.25677,97.313
32.4675,6.43984,97.413
32.5007,6.42659,97.513
32.5341,6.36064,97.613
32.5676,6.38797,97.713
32.6011,6.12352,97.813
32.6345,5.82885,97.913
32.6675,5.86056,98.013
32.7006,5.9197,98.113
32.7338,5.98199,98.213
32.7671,5.88282,98.313
32.8007,6.06588,98.413
32.8345,5.9868,98.513
32.8676,6.19319,98.613
32.9007,5.88555,98.713
32.9341,6.01581,98.813
32.9675,6.13485,98.913
33.0006,6.02647,99.013
33.0339,5.99989,99.113
33.0674,6.0279,99.213
33.1009,6.03141,99.313
33.1342,6.21465,99.413
33.1675,6.14135,99.513
33.2008,6.00777,99.613
33.234,5.95915,99.713
33.2671,5.94129,99.813
33.3005,5.90362,99.913
33.334,5.86556,100.013
33.3675,5.90411,100.113
33.4009,5.90081,100.213
33.4341,5.68447,100.313
33.4673,5.60791,100.413
33.5006,5.43216,100.513
33.5338,5.49145,100.613
33.5671,5.5752,100.713
33.6005,5.25527,100.813
33.6341,5.16823,100.913
33.6675,5.16392,101.013
33.7007,5.19244,101.113
33.7339,5.29431,101.213
33.7671,5.31032,101.313
33.8005,5.0622,101.413
33.8338,5.12226,101.513
33.8673,5.06501,101.613
33.9007,5.10631,101.713
33.934,5.17115,101.813
33.9673,5.28267,101.913
34.0004,5.21669,102.013
34.0337,5.15415,102.113
34.067,5.32758,102.213
34.1004,5.21881,102.313
34.1338,5.13563,102.413
34.1672,5.32606,102.513
34.2004,5.2562,102.613
34.2337,5.28248,102.713
34.2672,5.28347,102.813
34.3005,5.29697,102.913
34.3336,5.19988,103.013
34.3671,5.31841,103.113
34.4005,5.42504,103.213
34.434,5.37102,103.313
34.4672,5.30596,103.413
34.5005,5.41025,103.513
34.5338,5.36712,103.613
34.5672,5.30314,103.713
34.6003,5.47935,103.813
34.6337,5.30966,103.913
34.6669,5.29708,104.013
34.7006,5.32957,104.113
34.734,5.42417,104.213
34.7673,5.28921,104.313
34.8006,5.21456,104.413
34.8339,5.3749,104.513
34.8672,5.22386,104.613
34.9005,5.20742,104.713
34.9339,5.26505,104.813
34.9675,5.33065,104.913
35.0009,5.29619,105.013
35.0342,5.11026,105.113
35.0672,5.18244,105.213
35.1004,4.87767,105.313
35.1337,4.97367,105.413
35.167,4.9834,105.513
35.2006,4.84061,105.613
35.2343,4.75397,105.713
35.2675,4.92586,105.813
35.3006,4.91536,105.913
35.3341,4.81616,106.013
35.3675,4.7906,106.113
35.4007,4.72887,106.213
35.4339,4.8809,106.313
35.4673,4.76892,106.413
35.501,4.79113,106.513
35.5343,4.75428,106.613
35.5676,4.47466,106.713
35.6009,4.58857,106.813
35.634,4.41011,106.913
35.6673,4.39201,107.013
35.7007,4.09561,107.113
35.7342,4.36103,107.213
35.7677,4.28874,107.313
35.801,4.18921,107.413
35.8343,4.16412,107.513
35.8676,4.32424,107.613
35.9009,4.22415,107.713
35.9341,4.32504,107.813
35.9674,4.30406,107.913
36.0008,4.2759,108.013
36.0344,4.27571,108.113
36.0677,4.20713,108.213
36.101,4.30945,108.313
36.1342,4.27599,108.413
36.1675,4.20245,108.513
36.2009,4.24701,108.613
36.2343,4.22852,108.713
36.2676,4.30007,108.813
36.301,4.14413,108.913
36.3343,4.36242,109.013
36.3676,4.27298,109.113
36.4009,4.16726,109.213
36.4341,4.0878,109.313
36.4674,3.91618,109.413
36.5007,3.89015,109.513
36.5341,3.92192,109.613
36.5675,3.89727,109.713
36.6007,3.82161,109.813
36.6341,4.0521,109.913
36.6677,3.86334,110.013
36.7008,3.80263,110.113
36.7341,3.84532,110.213
36.7675,3.89521,110.313
36.8008,3.80245,110.413
36.8343,3.75508,110.513
36.8675,3.95511,110.613
36.9007,3.90971,110.713
36.9341,3.87428,110.813
36.9674,3.90479,110.913
37.0007,3.83085,111.013
37.0339,3.71931,111.113
37.0671,3.78617,111.213
37.1008,3.80055,111.313
37.1342,3.69466,111.413
37.1675,3.71374,111.513
37.2008,3.85226,111.613
37.2341,3.75309,111.713
37.2674,3.72604,111.813
37.3007,3.64028,111.913
37.334,3.68163,112.013
37.3676,3.67409,112.113
37.4011,3.7513,112.213
37.4344,3.75937,112.313
37.4672,3.61209,112.413
37.5005,3.56893,112.513
37.5338,3.63003,112.613
37.5671,3.50704,112.713
37.6006,3.48572,112.813
37.6343,3.60842,112.913
37.6674,3.45551,113.013
37.7006,3.64232,113.113
37.7341,3.45901,113.213
37.7674,3.3815,113.313
37.8006,3.4605,113.413
37.8339,3.55805,113.513
37.8672,3.47595,113.613
37.9009,3.44828,113.713
37.9342,3.49832,113.813
37.9674,3.34288,113.913
38.0007,3.31133,114.013
38.0338,3.33732,114.113
38.0671,3.44787,114.213
38.1005,3.33386,114.313
38.1339,3.49707,114.413
38.1675,3.28701,114.513
38.2007,3.35931,114.613
38.234,3.21443,114.713
38.2673,3.23875,114.813
38.3006,3.16459,114.913
38.3338,3.22685,115.013
38.3671,3.22078,115.113
38.4004,3.1257,115.213
38.434,3.26301,115.313
38.4674,3.28279,115.413
38.5005,3.20064,115.513
38.5338,3.145,115.613
38.5671,3.17438,115.713
38.6005,3.09397,115.813
38.6339,2.95813,115.913
38.6672,3.18087,116.013
38.7006,3.11218,116.113
38.7339,3.07286,116.213
38.7671,3.27761,116.313
38.8005,3.12219,116.413
38.8337,3.07909,116.513
38.867,3.10874,116.613
38.9003,3.06372,116.713
38.9337,3.05884,116.813
38.9671,3.04834,116.913
39.0003,3.15989,117.013
39.0338,2.99971,117.113
39.0673,3.11469,117.213
39.1005,3.03494,117.313
39.1338,2.96145,117.413
39.1672,2.94355,117.513
39.2005,2.90712,117.613
39.234,2.94852,117.713
39.2673,2.90143,117.813
39.3006,2.86261,117.913
39.3339,2.86048,118.013
39.3672,2.72085,118.113
39.4005,2.71609,118.213
39.4338,2.71081,118.313
39.467,2.5707,118.413
39.5007,2.54922,118.513
39.5341,2.37048,118.613
39.5675,2.29795,118.713
39.6008,2.1802,118.813
39.6341,2.21879,118.913
39.6674,2.13801,119.013
39.7008,2.02779,119.113
39.734,2.24927,119.213
39.7676,2.22115,119.313
39.8011,2.21792,119.413
39.8345,2.18479,119.513
39.8674,2.14915,119.613
39.9006,2.12202,119.713
39.934,2.06252,119.813
39.9672,2.05633,119.913
40.0008,2.05906,120.013
40.0344,2.03025,120.113
40.0676,2.01802,120.213
40.1009,2.00205,120.313
40.1343,1.79838,120.413
40.1675,1.94503,120.513
40.2009,1.79312,120.613
40.2342,1.8024,120.713
40.2675,1.86969,120.813
40.301,1.95834,120.913
40.3344,1.92051,121.013
40.3676,1.82587,121.113
40.401,1.6601,121.213
40.4341,1.7802,121.313
40.4674,1.76918,121.413
40.5008,1.87132,121.513
40.5341,1.7897,121.613
40.5676,1.73154,121.713
40.601,1.92292,121.813
40.6343,1.86404,121.913
40.6676,1.76749,122.013
40.7009,1.70508,122.113
40.7341,1.78152,122.213
40.7674,1.75958,122.313
40.8008,1.77639,122.413
40.8343,1.82584,122.513
40.8677,1.7238,122.613
40.901,1.65857,122.713
40.9341,1.69217,122.813
40.9675,1.61858,122.913
41.0008,1.71536,123.013
41.0343,1.84393,123.113
41.0675,1.71765,123.213
41.1009,1.52647,123.313
41.1343,1.55617,123.413
41.1676,1.42858,123.513
41.2008,1.66349,123.613
41.2341,1.64521,123.713
41.2674,1.39931,123.813
41.3008,1.32654,123.913
41.334,1.4003,124.013
41.3673,1.21751,124.113
41.4006,1.29697,124.213
41.4342,1.0824,124.313
41.4676,1.12963,124.413
41.5008,1.64616,124.513
41.5342,1.36324,124.613
41.5675,1.25048,124.713
41.6008,1.27544,124.813
41.6341,1.31563,124.913
41.6675,1.30236,125.013
41.7008,1.03653,125.113
41.7341,1.32917,125.213
41.7673,1.16022,125.313
41.8007,1.00914,125.413
41.8339,1.47103,125.513
41.8671,1.23184,125.613
41.9007,1.16137,125.713
41.9342,1.10162,125.813
41.9674,1.11954,125.913
42.0008,1.06984,126.013
42.034,1.12586,126.113
42.0674,1.12784,126.213
42.1007,1.05796,126.313
42.134,1.00246,126.413
42.1675,1.08529,126.513
42.201,1.0986,126.613
42.2343,1.09011,126.713
42.2672,1.0908,126.813
42.3004,1.24614,126.913
42.3339,1.05801,127.013
42.3671,1.12135,127.113
42.4006,0.970265,127.213
42.4341,1.24265,127.313
42.4673,1.04189,127.413
42.5007,0.928856,127.513
42.5341,1.00546,127.613
42.5671,1.08293,127.713
42.6006,1.00265,127.813
42.6339,1.10012,127.913
42.6672,1.13871,128.013
42.7007,1.1113,128.113
42.7341,1.13641,128.213
42.7673,1.00276,128.313
42.8006,0.889077,128.413
42.8337,1.12613,128.513
42.8671,1.10209,128.613
42.9005,1.08642,128.713
42.9338,1.012,128.813
42.9672,1.07283,128.913
43.0006,1.03939,129.013
43.0339,0.952075,129.113
43.0672,0.96206,129.213
43.1005,1.05189,129.313
43.1338,0.584183,129.413
43.167,0.61588,129.513
43.2004,0.601105,129.613
43.2339,0.629121,129.713
43.2674,0.717173,129.813
43.3006,0.723518,129.913
43.3338,0.589473,130.013
43.3671,0.567381,130.113
43.4005,0.583059,130.213
43.4339,0.815822,130.313
43.4671,0.712053,130.413
43.5005,0.732996,130.513
43.5339,0.668034,130.613
43.5671,0.923961,130.713
43.6005,0.533846,130.813
43.6338,0.739222,130.913
43.6672,0.659296,131.013
43.7005,0.749165,131.113
43.7338,0.62886,131.213
43.7671,0.611524,131.313
43.8005,0.642533,131.413
43.834,0.703523,131.513
43.8675,0.661231,131.613
43.9007,0.42539,131.713
43.934,0.562707,131.813
43.9674,0.693717,131.913
44.0007,0.493626,132.013
44.0341,0.497888,132.113
44.0674,0.531606,132.213
44.1008,0.459172,132.313
44.1341,0.44982,132.413
44.1674,0.40097,132.513
44.2007,0.515731,132.613
44.234,0.455235,132.713
44.2672,0.409436,132.813
44.3007,0.367984,132.913
44.3341,0.487157,133.013
44.3675,0.344996,133.113
44.4008,0.400091,133.213
44.4342,0.387496,133.313
44.4675,0.39272,133.413
44.5008,0.288731,133.513
44.5341,0.40178,133.613
44.5676,0.382141,133.713
44.6011,0.276298,133.813
44.6344,0.371856,133.913
44.6673,0.479936,134.013
44.7006,0.336971,134.113
44.734,0.337592,134.213
44.7674,0.192074,134.313
44.8009,0.208727,134.413
44.8343,0.264251,134.513
44.8675,0.287992,134.613
44.9009,0.341099,134.713
44.9343,0.380224,134.813
44.9674,0.267846,134.913
45.0008,0.228889,135.013
45.0342,0.119588,135.113
45.0675,0.132279,135.213
45.1009,0.338156,135.313
45.1344,0.141808,135.413
45.1676,0.0480002,135.513
45.2009,0.108238,135.613
45.2341,0.0702403,135.713
45.2674,0.156469,135.813
45.3008,0.0497216,135.913
45.3342,0.197288,136.013
45.3676,0.0955186,136.113
45.401,0.149646,136.213
45.4342,0.173621,136.313
45.4676,0.01268,136.413
45.5009,0.254763,136.513
45.5342,0.159442,136.613
45.5674,0.0588001,136.713
45.6009,0.0111502,136.813
45.6343,0.098765,136.913
45.6678,0.0403581,137.013
45.701,0.101128,137.113
45.7342,0.0224776,137.213
45.7676,0.116248,137.313
45.8009,0.255943,137.413
45.8344,0.201598,137.513
45.8675,0.117992,137.613
45.9008,0.131904,137.713
45.9343,4.28182e-05,137.813
45.9675,0.198991,137.913
46.0008,0.0749863,138.013
46.0342,0.137395,138.113
46.0675,0.145234,138.213
46.1009,0.0184838,138.313
46.134,0.13684,138.413
46.1672,0.0385967,138.513
46.2006,0.147593,138.613
46.2341,0.312324,138.713
46.2675,0.0573783,138.813
46.3008,0.0225963,138.913
46.3341,0.016411,139.013
46.3675,0.0263672,139.113
46.4007,0.00690443,139.213
46.434,0.261945,139.313
46.4674,0.269802,139.413
46.5007,0.141433,139.513
46.534,0.0391134,139.613
46.5673,0.143596,139.713
46.6007,0.0845134,139.813
46.6339,0.0673452,139.913
46.6672,0.0216154,140.013
46.7007,0.18272,140.113
46.7341,0.134367,140.213
46.7673,0.0425953,140.313
46.8007,0.00892954,140.413
46.8341,0.0854485,140.513
46.8674,0.13091,140.613
46.9007,0.0521613,140.713
46.9339,0.0109965,140.813
46.9674,0.125852,140.913
47.001,0.236504,141.013
47.0341,0.123948,141.113
47.0671,0.0154904,141.213
47.1004,0.0107007,141.313
47.1338,0.0979154,141.413
47.1672,0.191664,141.513
47.2007,0.0132785,141.613
47.2339,0.13764,141.713
47.2672,0.0460354,141.813
47.3006,0.00515764,141.913
47.334,0.0307707,142.013
47.3672,0.157001,142.113
47.4005,0.0512641,142.213
47.4339,0.0258904,142.313
47.4673,0.173747,142.413
47.5006,0.0563254,142.513
47.534,0.134942,142.613
47.5673,0.0404281,142.713
47.6005,0.00536298,142.813
47.6338,0.0810392,142.913
47.6671,0.0578853,143.013
47.7005,0.163536,143.113
47.7339,0.0646409,143.213
47.7672,0.00982191,143.313
47.8006,0.0648598,143.413
47.8339,0.0129369,143.513
47.8673,0.157885,143.613
47.9006,0.0223248,143.713
47.9338,0.014563,143.813
47.9671,0.0906101,143.913
48.0005,0.149326,144.013
48.0339,0.113561,144.113
48.0674,0.244102,144.213
48.1006,0.0253114,144.313
48.1339,0.08775,144.413
48.1673,0.233524,144.513
48.2007,0.0233593,144.613