File: Selected_data/SSP_2025-03-20_D12_OPER.csv
Crossheadmm,LoadN,Timesec
0.0337,0.379566,0.112
0.0668,0.6131,0.212
0.1003,0.561089,0.312
0.1338,0.632784,0.412
0.1673,0.77791,0.512
0.2007,0.82212,0.612
0.234,0.75968,0.712
0.2672,0.838756,0.812
0.3004,0.809115,0.912
0.3338,0.853186,1.012
0.3672,0.991072,1.112
0.4005,1.0285,1.212
0.434,1.10866,1.312
0.4675,1.10388,1.412
0.5009,1.13191,1.512
0.5342,1.24382,1.612
0.5674,1.19924,1.712
0.6006,1.30974,1.812
0.6338,1.35261,1.912
0.6671,1.47071,2.012
0.7006,1.45317,2.112
0.7339,1.51064,2.212
0.7673,1.54658,2.312
0.8009,1.50382,2.412
0.8342,1.55075,2.512
0.8674,1.63516,2.612
0.9007,1.77675,2.712
0.934,1.7974,2.812
0.9675,1.90021,2.912
1.0009,1.93245,3.012
1.0343,2.13313,3.112
1.0678,2.2468,3.212
1.1013,2.23321,3.312
1.1345,2.39027,3.412
1.1672,2.31686,3.512
1.2003,2.39991,3.612
1.234,2.69536,3.712
1.2674,2.75093,3.812
1.301,2.79228,3.912
1.3345,2.99379,4.012
1.3675,3.04272,4.112
1.4008,3.13633,4.212
1.4342,3.17609,4.312
1.4673,3.40558,4.412
1.5009,3.54637,4.512
1.5344,3.78324,4.612
1.5677,3.83339,4.712
1.6012,3.814,4.812
1.6344,4.10019,4.912
1.6676,4.25321,5.012
1.7008,4.54664,5.112
1.7339,4.4528,5.212
1.7674,4.65766,5.312
1.801,4.91286,5.412
1.8344,4.98045,5.512
1.8677,5.22817,5.612
1.901,5.47977,5.712
1.9341,5.63186,5.812
1.9674,5.81738,5.912
2.0007,6.0797,6.012
2.0341,6.20981,6.112
2.0675,6.5254,6.212
2.101,6.88859,6.312
2.1344,6.97681,6.412
2.1677,7.37048,6.512
2.2009,7.53403,6.612
2.234,7.77016,6.712
2.2673,8.14717,6.812
2.3008,8.52729,6.912
2.3345,8.76425,7.012
2.3678,9.19223,7.112
2.4009,9.57502,7.212
2.434,9.93219,7.312
2.4671,10.1254,7.412
2.5005,10.554,7.512
2.534,10.9713,7.612
2.5673,11.3512,7.712
2.6008,11.6951,7.812
2.634,12.2421,7.912
2.6673,12.54,8.012
2.7004,13.021,8.112
2.7339,13.3891,8.212
2.7672,13.9494,8.312
2.8004,14.4654,8.412
2.8338,14.9111,8.512
2.8675,15.4405,8.612
2.9007,15.9925,8.712
2.934,16.4791,8.812
2.9672,16.9592,8.912
3.0005,17.5297,9.012
3.0337,18.1281,9.112
3.067,18.6973,9.212
3.1004,19.2054,9.312
3.1339,19.9565,9.412
3.1672,20.5143,9.512
3.2007,21.0429,9.612
3.2339,21.0979,9.712
3.2672,21.6457,9.812
3.3004,22.268,9.912
3.3338,22.9657,10.012
3.3672,23.6927,10.112
3.4007,24.2932,10.212
3.434,25.1136,10.312
3.4675,25.8027,10.412
3.5009,26.6814,10.512
3.5341,27.4175,10.612
3.5668,28.1492,10.712
3.6,29.0384,10.812
3.6337,29.743,10.912
3.6672,30.5358,11.012
3.7008,31.3992,11.112
3.7342,32.399,11.212
3.7672,33.131,11.312
3.8005,33.9531,11.412
3.8339,34.7675,11.512
3.8669,35.7547,11.612
3.9005,36.7139,11.712
3.9341,37.5527,11.812
3.9674,38.4521,11.912
4.0008,39.6245,12.012
4.034,40.6019,12.112
4.0672,41.4615,12.212
4.1004,42.6065,12.312
4.1336,43.6545,12.412
4.1671,44.7869,12.512
4.2007,45.8418,12.612
4.234,46.7775,12.712
4.2674,47.8829,12.812
4.3006,49.2744,12.912
4.3339,50.3589,13.012
4.3672,51.6554,13.112
4.4004,52.8,13.212
4.4338,53.9771,13.312
4.4672,55.2683,13.412
4.5007,56.6427,13.512
4.5341,58.0223,13.612
4.5673,59.2946,13.712
4.6006,60.6418,13.812
4.6338,62.0171,13.912
4.6671,63.3744,14.012
4.7006,64.6771,14.112
4.7343,66.1117,14.212
4.7675,67.2917,14.312
4.8007,68.7022,14.412
4.8339,70.1298,14.512
4.8671,71.4031,14.612
4.9005,72.7561,14.712
4.934,74.1126,14.812
4.9673,75.2462,14.912
5.0008,76.5287,15.012
5.0341,77.7926,15.112
5.0674,78.9262,15.212
5.1006,80.2882,15.312
5.1341,81.1016,15.412
5.1675,81.1521,15.512
5.2006,81.8003,15.612
5.2341,83.1498,15.712
5.2676,83.8344,15.812
5.3009,83.7024,15.912
5.3342,85.0197,16.012
5.3675,86.7516,16.112
5.4007,88.4,16.212
5.434,89.9881,16.312
5.4672,91.8966,16.412
5.5007,93.7712,16.512
5.534,95.4828,16.612
5.5675,97.2978,16.712
5.601,99.349,16.812
5.6342,101.295,16.912
5.6675,103.159,17.012
5.7007,105.164,17.112
5.734,106.949,17.212
5.7674,108.685,17.312
5.8009,110.463,17.412
5.8343,112.537,17.512
5.8678,114.427,17.612
5.9012,116.331,17.712
5.9343,118.412,17.812
5.9672,120.414,17.912
6.0003,122.562,18.012
6.0339,124.488,18.112
6.0674,124.504,18.212
6.1011,124.143,18.312
6.1343,125.539,18.412
6.1674,127.255,18.512
6.2008,129.322,18.612
6.2341,131.261,18.712
6.2672,133.495,18.812
6.3006,135.435,18.912
6.3342,137.401,19.012
6.3677,139.412,19.112
6.4011,141.497,19.212
6.4343,142.852,19.312
6.4675,128.215,19.412
6.5007,128.228,19.512
6.5338,129.451,19.612
6.5672,131.3,19.712
6.6008,133.172,19.812
6.6342,135.202,19.912
6.6676,137.128,20.012
6.7008,139.222,20.112
6.734,141.203,20.212
6.7673,142.372,20.312
6.8005,144.242,20.412
6.8338,145.738,20.512
6.8673,146.393,20.612
6.9008,147.717,20.712
6.9342,148.383,20.812
6.9675,136.201,20.912
7.0006,136.057,21.012
7.0338,137.126,21.112
7.0671,137.503,21.212
7.1005,137.198,21.312
7.1342,138.994,21.412
7.1675,140.686,21.512
7.2006,142.246,21.612
7.2339,143.261,21.712
7.267,144.5,21.812
7.3005,145.638,21.912
7.3338,145.464,22.012
7.3671,143.833,22.112
7.4007,144.026,22.212
7.4339,141.237,22.312
7.4671,141.365,22.412
7.5004,142.169,22.512
7.5338,139.386,22.612
7.5672,140.58,22.712
7.6003,141.467,22.812
7.6337,142.527,22.912
7.6673,142.893,23.012
7.7006,143.971,23.112
7.7339,144.722,23.212
7.7671,142.607,23.312
7.8004,141.771,23.412
7.8337,140.531,23.512
7.8669,139.818,23.612
7.9003,139.051,23.712
7.9337,138.901,23.812
7.9671,138.243,23.912
8.0006,138.532,24.012
8.0338,139.402,24.112
8.0671,111.961,24.212
8.1004,104.021,24.312
8.1337,101.694,24.412
8.1671,101.612,24.512
8.2005,99.5757,24.612
8.234,99.5397,24.712
8.2675,95.829,24.812
8.3009,94.8542,24.912
8.3337,94.9768,25.012
8.3668,95.1441,25.112
8.4001,94.0208,25.212
8.4335,94.1428,25.312
8.4672,91.7551,25.412
8.5008,89.7001,25.512
8.534,89.0339,25.612
8.5671,80.9142,25.712
8.6005,80.2808,25.812
8.6338,78.8442,25.912
8.667,79.1118,26.012
8.7003,79.6678,26.112
8.7339,79.1075,26.212
8.7674,79.2255,26.312
8.8008,77.7513,26.412
8.8341,78.0768,26.512
8.8673,76.0604,26.612
8.9005,76.179,26.712
8.9337,76.4337,26.812
8.9671,76.8772,26.912
9.0006,71.0513,27.012
9.0341,70.5496,27.112
9.0674,69.8869,27.212
9.1007,69.5902,27.312
9.134,69.6821,27.412
9.1673,69.8636,27.512
9.2005,70.4225,27.612
9.2338,71.0469,27.712
9.2673,71.5587,27.812
9.3008,71.9503,27.912
9.3342,72.1196,28.012
9.3675,72.7202,28.112
9.4007,73.3908,28.212
9.4339,73.8476,28.312
9.4673,73.7552,28.412
9.5007,73.7738,28.512
9.5342,73.8715,28.612
9.5675,74.2262,28.712
9.6008,74.3311,28.812
9.634,74.62,28.912
9.6673,74.8826,29.012
9.7007,75.112,29.112
9.734,75.3955,29.212
9.7673,75.7934,29.312
9.8009,76.3066,29.412
9.8342,76.7836,29.512
9.8674,76.9067,29.612
9.9007,77.3754,29.712
9.9342,77.4323,29.812
9.9675,77.617,29.912
10.0007,78.1066,30.012
10.0341,78.5179,30.112
10.0676,79.1703,30.212
10.101,79.4891,30.312
10.1342,79.6907,30.412
10.1674,80.1434,30.512
10.2008,80.9034,30.612
10.2341,81.2975,30.712
10.2673,81.724,30.812
10.3006,82.0855,30.912
10.3339,82.6774,31.012
10.3675,82.97,31.112
10.401,83.447,31.212
10.4342,83.96,31.312
10.4675,84.1451,31.412
10.5008,84.5914,31.512
10.5341,84.4867,31.612
10.5675,84.8984,31.712
10.6008,85.4619,31.812
10.6344,85.7587,31.912
10.668,86.316,32.012
10.7013,86.7292,32.112
10.734,84.0804,32.212
10.7672,83.5913,32.312
10.8005,83.5993,32.412
10.8338,82.2042,32.512
10.8674,81.1153,32.612
10.9012,80.1484,32.712
10.9344,76.7255,32.812
10.9674,72.5527,32.912
11.0009,68.532,33.012
11.0342,64.7056,33.112
11.0674,62.5169,33.212
11.1006,61.1649,33.312
11.1341,60.3999,33.412
11.1677,60.0485,33.512
11.2011,59.9264,33.612
11.2343,59.7984,33.712
11.2676,59.7971,33.812
11.3006,59.7853,33.912
11.3339,59.5562,34.012
11.3673,59.6192,34.112
11.4008,59.7241,34.212
11.4343,59.2358,34.312
11.4677,59.0449,34.412
11.5009,58.5881,34.512
11.5341,58.4174,34.612
11.5674,58.2165,34.712
11.6007,58.2472,34.812
11.6339,58.1274,34.912
11.6673,58.1338,35.012
11.7009,58.0505,35.112
11.7343,57.2671,35.212
11.7674,55.6175,35.312
11.8006,52.7017,35.412
11.834,51.079,35.512
11.8673,50.3093,35.612
11.9007,48.2048,35.712
11.9341,47.2103,35.812
11.9675,46.6893,35.912
12.0006,46.2301,36.012
12.0338,45.5374,36.112
12.0671,45.0647,36.212
12.1006,44.2053,36.312
12.1338,43.9035,36.412
12.1671,43.7017,36.512
12.2005,42.7711,36.612
12.2339,42.6184,36.712
12.267,42.7787,36.812
12.3005,42.4541,36.912
12.334,42.0851,37.012
12.3672,41.815,37.112
12.4003,41.576,37.212
12.4338,41.6378,37.312
12.4672,41.6741,37.412
12.5006,41.6532,37.512
12.5338,41.0586,37.612
12.5671,39.6217,37.712
12.6004,39.6121,37.812
12.6337,39.4482,37.912
12.667,39.077,38.012
12.7003,38.8168,38.112
12.7336,38.4163,38.212
12.7672,38.2439,38.312
12.8006,38.0469,38.412
12.8338,37.3889,38.512
12.8671,36.416,38.612
12.9005,36.2577,38.712
12.9337,36.0966,38.812
12.9671,36.0618,38.912
13.0005,35.9546,39.012
13.0341,36.1048,39.112
13.0676,35.6797,39.212
13.1009,35.3423,39.312
13.1336,35.0958,39.412
13.1669,34.5465,39.512
13.2003,34.4136,39.612
13.2336,34.2096,39.712
13.2672,33.9801,39.812
13.3009,33.9065,39.912
13.334,33.3342,40.012
13.3673,33.1052,40.112
13.4007,32.9336,40.212
13.434,32.6792,40.312
13.4673,32.6495,40.412
13.5005,32.5828,40.512
13.534,32.7276,40.612
13.5676,32.6207,40.712
13.6009,32.6834,40.812
13.6341,32.8507,40.912
13.6674,32.9873,41.012
13.7006,33.1267,41.112
13.7338,33.2083,41.212
13.7673,32.4881,41.312
13.8007,32.5497,41.412
13.8342,32.296,41.512
13.8675,32.0895,41.612
13.9008,32.1359,41.712
13.9341,31.804,41.812
13.9674,31.7371,41.912
14.0007,31.7037,42.012
14.034,31.5978,42.112
14.0673,31.6266,42.212
14.101,31.5523,42.312
14.1343,31.3636,42.412
14.1676,31.4221,42.512
14.2008,31.4128,42.612
14.2341,31.2793,42.712
14.2674,31.2342,42.812
14.3009,31.1324,42.912
14.3342,30.9815,43.012
14.3676,31.1286,43.112
14.4008,31.0597,43.212
14.434,31.005,43.312
14.4674,31.0102,43.412
14.5008,30.8201,43.512
14.5342,30.9155,43.612
14.5674,30.761,43.712
14.6008,30.8455,43.812
14.6342,30.8822,43.912
14.6674,30.6966,44.012
14.7009,30.2009,44.112
14.7344,29.9001,44.212
14.7676,24.8166,44.312
14.8008,23.4932,44.412
14.8342,22.852,44.512
14.8675,22.2717,44.612
14.9009,21.8191,44.712
14.9342,21.7615,44.812
14.9674,21.5056,44.912
15.0008,21.6798,45.012
15.0341,21.1543,45.112
15.0673,20.9446,45.212
15.1006,20.8497,45.312
15.1338,20.5402,45.412
15.1676,20.4162,45.512
15.2009,20.2831,45.612
15.2342,19.9883,45.712
15.2675,19.7227,45.812
15.3008,19.5266,45.912
15.3341,19.4458,46.012
15.3674,19.2956,46.112
15.4007,19.187,46.212
15.4344,19.1765,46.312
15.4679,18.8713,46.412
15.5012,18.6967,46.512
15.5339,18.368,46.612
15.5671,18.1302,46.712
15.6005,18.1442,46.812
15.6339,17.8242,46.912
15.6674,17.4981,47.012
15.7011,17.273,47.112
15.7342,16.012,47.212
15.7674,15.7317,47.312
15.801,15.5088,47.412
15.8341,15.3462,47.512
15.8674,15.2607,47.612
15.9007,15.2705,47.712
15.934,15.0814,47.812
15.9677,14.9801,47.912
16.001,14.7721,48.012
16.0342,14.6185,48.112
16.0675,14.4459,48.212
16.1006,14.2653,48.312
16.134,14.3094,48.412
16.1673,14.0882,48.512
16.2007,14.0598,48.612
16.2343,14.1192,48.712
16.2676,14.0093,48.812
16.3008,14.0942,48.912
16.3341,13.8587,49.012
16.3674,13.6997,49.112
16.4006,13.8633,49.212
16.4339,13.8227,49.312
16.4673,13.7991,49.412
16.5009,13.9216,49.512
16.5342,14.0169,49.612
16.5674,13.9472,49.712
16.6006,13.7546,49.812
16.6339,13.7481,49.912
16.6672,13.6019,50.012
16.7007,13.6771,50.112
16.7339,13.6143,50.212
16.7674,13.3636,50.312
16.8006,13.272,50.412
16.8337,13.3059,50.512
16.8671,13.1463,50.612
16.9005,13.1748,50.712
16.9338,13.0137,50.812
16.9671,12.8324,50.912
17.0003,12.606,51.012
17.0338,12.6356,51.112
17.067,12.6724,51.212
17.1005,12.2396,51.312
17.1339,12.2859,51.412
17.1671,12.4744,51.512
17.2004,12.5822,51.612
17.2339,12.2909,51.712
17.2672,12.2058,51.812
17.3006,12.3121,51.912
17.3339,12.1508,52.012
17.3672,12.0514,52.112
17.4005,12.23,52.212
17.4338,12.2362,52.312
17.4672,12.1374,52.412
17.5004,12.0235,52.512
17.5336,12.0699,52.612
17.5673,12.0379,52.712
17.6007,11.9154,52.812
17.634,12.0308,52.912
17.6673,11.7892,53.012
17.7006,11.7473,53.112
17.734,11.7492,53.212
17.7672,11.588,53.312
17.8006,11.5463,53.412
17.8342,11.5819,53.512
17.8677,11.4234,53.612
17.901,11.3817,53.712
17.9338,11.1394,53.812
17.967,11.1824,53.912
18.0005,11.0761,54.012
18.0338,11.0469,54.112
18.0674,10.7126,54.212
18.1009,10.6594,54.312
18.134,10.4996,54.412
18.1674,10.4605,54.512
18.2009,10.3142,54.612
18.234,10.1742,54.712
18.2674,10.1212,54.812
18.3008,9.87129,54.912
18.3341,9.85055,55.012
18.3676,9.8736,55.112
18.401,9.86887,55.212
18.4342,9.67094,55.312
18.4675,9.69039,55.412
18.5007,9.59423,55.512
18.534,9.65486,55.612
18.5674,9.5633,55.712
18.6007,9.71009,55.812
18.6342,9.67368,55.912
18.6676,9.48819,56.012
18.7008,9.49782,56.112
18.7342,9.35357,56.212
18.7675,9.36048,56.312
18.8007,9.30305,56.412
18.834,9.30479,56.512
18.8674,9.41855,56.612
18.901,9.34882,56.712
18.9343,9.25648,56.812
18.9676,9.13916,56.912
19.0008,9.28091,57.012
19.0341,9.12161,57.112
19.0675,9.11698,57.212
19.1009,9.16675,57.312
19.1342,9.30188,57.412
19.1676,9.19773,57.512
19.2009,9.34039,57.612
19.234,9.20361,57.712
19.2674,9.2198,57.812
19.3009,9.18149,57.912
19.3342,9.28127,58.012
19.3675,9.32416,58.112
19.4007,9.18973,58.212
19.434,9.08857,58.312
19.4673,9.33235,58.412
19.5008,9.26127,58.512
19.5343,9.20057,58.612
19.5674,9.37328,58.712
19.6008,9.27605,58.812
19.6342,9.2393,58.912
19.6675,9.11852,59.012
19.7008,9.34251,59.112
19.7342,9.20819,59.212
19.7676,9.25894,59.312
19.8009,9.23082,59.412
19.8341,9.15917,59.512
19.8675,9.04819,59.612
19.9007,9.08335,59.712
19.9339,9.0459,59.812
19.9676,8.73202,59.912
20.0009,8.75827,60.012
20.0342,8.55151,60.112
20.0675,8.55764,60.212
20.1009,8.54377,60.312
20.1343,8.35764,60.412
20.1675,8.39468,60.512
20.2008,8.3293,60.612
20.2344,8.05574,60.712
20.268,8.13521,60.812
20.3012,8.18041,60.912
20.334,8.21131,61.012
20.3671,8.04636,61.112
20.4006,7.98547,61.212
20.434,7.88586,61.312
20.4675,7.77471,61.412
20.501,7.68776,61.512
20.5341,7.55949,61.612
20.5675,7.48227,61.712
20.6009,7.66781,61.812
20.634,7.4839,61.912
20.6674,7.44983,62.012
20.7007,7.29278,62.112
20.734,7.31543,62.212
20.7675,7.29187,62.312
20.8009,7.29727,62.412
20.8341,7.33408,62.512
20.8674,7.26363,62.612
20.9005,7.22402,62.712
20.9339,7.08621,62.812
20.9673,7.156,62.912
21.0006,7.15413,63.012
21.034,7.1087,63.112
21.0674,6.91402,63.212
21.1006,6.9976,63.312
21.134,6.72234,63.412
21.1672,6.64937,63.512
21.2005,6.6346,63.612
21.2337,6.48188,63.712
21.2672,6.35128,63.812
21.3006,6.37696,63.912
21.334,6.33669,64.012
21.3672,6.45551,64.112
21.4005,6.71511,64.212
21.4338,6.46956,64.312
21.4672,6.24599,64.412
21.5006,6.19065,64.512
21.5338,6.0399,64.612
21.5671,6.02689,64.712
21.6005,5.90739,64.812
21.6336,5.87179,64.912
21.6671,5.87676,65.012
21.7005,5.9356,65.112
21.7338,5.88593,65.212
21.7672,5.73932,65.312
21.8003,5.59285,65.412
21.8336,5.62745,65.512
21.867,5.50097,65.612
21.9006,5.5802,65.712
21.9339,5.67741,65.812
21.9671,5.60088,65.912
22.0005,5.41013,66.012
22.0339,5.02463,66.112
22.0671,5.00563,66.212
22.1005,4.75589,66.312
22.1338,4.95327,66.412
22.1672,5.02039,66.512
22.2005,4.85807,66.612
22.2338,4.89063,66.712
22.2672,4.85005,66.812
22.3004,4.67117,66.912
22.3337,4.80336,67.012
22.3673,4.65128,67.112
22.4007,4.58424,67.212