File: Selected_data/SSP_2025-03-20_D8_NO.csv
Crossheadmm,LoadN,Timesec
0.0336,18.1,0.112
0.067,28.4028,0.212
0.1003,36.7365,0.312
0.1336,43.8322,0.412
0.167,49.6808,0.512
0.2005,55.1554,0.612
0.2337,60.1714,0.712
0.2668,64.9754,0.812
0.3004,68.6562,0.912
0.3338,71.3439,1.012
0.3669,73.5276,1.112
0.4002,74.0338,1.212
0.4337,73.8062,1.312
0.4671,73.9299,1.412
0.5003,74.1382,1.512
0.5336,77.3085,1.612
0.5669,91.882,1.712
0.6,102.387,1.812
0.6333,111.934,1.912
0.6667,120.701,2.012
0.7001,128.76,2.112
0.7334,136.558,2.212
0.7667,144.16,2.312
0.8001,151.412,2.412
0.8335,157.932,2.512
0.8668,162.78,2.612
0.9001,168.098,2.712
0.9333,172.541,2.812
0.9667,176.952,2.912
1.0001,181.266,3.012
1.0334,185.227,3.112
1.0667,189.536,3.212
1.1001,194.343,3.312
1.1334,198.684,3.412
1.1667,203.479,3.512
1.2001,208.533,3.612
1.2335,213.52,3.712
1.2667,218.634,3.812
1.2999,224.319,3.912
1.3332,230.549,4.012
1.3666,236.695,4.112
1.4,242.937,4.212
1.4334,248.256,4.312
1.4668,251.573,4.412
1.5003,254.275,4.512
1.5333,258.112,4.612
1.5664,260.824,4.712
1.5998,260.451,4.812
1.6335,255.405,4.912
1.6669,261.246,5.012
1.7,269.919,5.112
1.7334,279.574,5.212
1.7669,272.629,5.312
1.8002,281.337,5.412
1.8333,289.132,5.512
1.8666,296.624,5.612
1.9001,304.385,5.712
1.9335,311.668,5.812
1.9668,320.79,5.912
2.0001,329.134,6.012
2.0333,336.491,6.112
2.0667,344.902,6.212
2.1,353.431,6.312
2.1333,361.814,6.412
2.1668,367.517,6.512
2.2001,366.708,6.612
2.2335,370.441,6.712
2.2668,377.239,6.812
2.3002,381.461,6.912
2.3335,344.061,7.012
2.3668,332.359,7.112
2.4001,337.032,7.212
2.4335,341.943,7.312
2.4669,348.277,7.412
2.5002,357.009,7.512
2.5334,362.834,7.612
2.5669,369.531,7.712
2.6004,378.354,7.812
2.6335,385.207,7.912
2.6667,391.518,8.012
2.7003,399.099,8.112
2.7337,407.766,8.212
2.7669,415.485,8.312
2.8001,423.103,8.412
2.8336,431.08,8.512
2.867,437.64,8.612
2.9002,442.524,8.712
2.9334,447.939,8.812
2.9669,454.498,8.912
3.0001,461.662,9.012
3.0334,468.737,9.112
3.0669,474.104,9.212
3.1002,479.458,9.312
3.1336,483.529,9.412
3.1668,489.52,9.512
3.2001,494.536,9.612
3.2335,500.52,9.712
3.2669,505.981,9.812
3.3003,509.624,9.912
3.3335,511.81,10.012
3.3668,515.326,10.112
3.4003,519.017,10.212
3.4335,522.645,10.312
3.4668,526.788,10.412
3.5002,532.311,10.512
3.5335,536.27,10.612
3.5669,540.044,10.712
3.6003,545.441,10.812
3.6336,549.41,10.912
3.6668,554.115,11.012
3.7,558.925,11.112
3.7332,564.271,11.212
3.7666,569.449,11.312
3.8002,574.589,11.412
3.8336,578.344,11.512
3.867,582.254,11.612
3.9003,585.794,11.712
3.9334,588.934,11.812
3.9665,589.285,11.912
3.9998,591.789,12.012
4.0336,594.362,12.112
4.0668,596.373,12.212
4.1,598.338,12.312
4.1335,600.072,12.412
4.1669,601.945,12.512
4.2002,602.319,12.612
4.2333,598.637,12.712
4.2665,594.773,12.812
4.3001,590.487,12.912
4.3334,587.271,13.012
4.3668,580.636,13.112
4.4001,559.841,13.212
4.4333,546.346,13.312
4.4668,535.441,13.412
4.5001,524.748,13.512
4.5333,513.975,13.612
4.5668,505.034,13.712
4.6001,496.08,13.812
4.6334,486.879,13.912
4.6668,478.558,14.012
4.7001,471.035,14.112
4.7335,463.216,14.212
4.7666,454.788,14.312
4.7999,441.564,14.412
4.8333,427.037,14.512
4.8668,379.772,14.612
4.9001,350.332,14.712
4.9333,337.042,14.812
4.9668,329.117,14.912
5.0004,322.073,15.012
5.0334,316.57,15.112
5.0665,311.337,15.212
5.1002,306.011,15.312
5.1335,300.871,15.412
5.1668,295.598,15.512
5.2001,290.749,15.612
5.2335,281.745,15.712
5.267,273.931,15.812
5.3001,267.681,15.912
5.3333,262.219,16.012
5.3669,259.267,16.112
5.4,257.037,16.212
5.4333,255.056,16.312
5.4668,253.541,16.412
5.5001,251.512,16.512
5.5336,248.508,16.612
5.5668,244.459,16.712
5.5999,241.486,16.812
5.6335,238.803,16.912
5.6668,237.316,17.012
5.7001,235.721,17.112
5.7334,234.066,17.212
5.7667,232.882,17.312
5.8002,220.183,17.412
5.8335,216.268,17.512
5.8667,214.325,17.612
5.9001,212.179,17.712
5.9335,210.465,17.812
5.9668,205.148,17.912
6.0003,190.521,18.012
6.0335,186.525,18.112
6.0668,184.336,18.212
6.0999,183.469,18.312
6.1331,182.454,18.412
6.1667,180.095,18.512
6.2002,179.106,18.612
6.2335,178.074,18.712
6.2669,177.685,18.812
6.3002,172.285,18.912
6.3333,170.633,19.012
6.3663,169.349,19.112
6.3999,168.096,19.212
6.4335,166.608,19.312
6.4668,161.367,19.412
6.5,157.833,19.512
6.5335,154.128,19.612
6.5669,150.891,19.712
6.6003,135.653,19.812
6.6334,129.996,19.912
6.6667,127.944,20.012
6.7001,126.111,20.112
6.7335,125.01,20.212
6.7669,123.752,20.312
6.8002,122.635,20.412
6.8334,119.695,20.512
6.8669,118.665,20.612
6.9002,116.78,20.712
6.9335,111.015,20.812
6.9669,108.635,20.912
7.0003,107.526,21.012
7.0337,106.41,21.112
7.0671,105.802,21.212
7.1005,104.381,21.312
7.1338,103.96,21.412
7.167,104.09,21.512
7.2003,104.293,21.612
7.2337,104.241,21.712
7.2671,104.404,21.812
7.3004,104.857,21.912
7.3336,105.072,22.012
7.3671,105.244,22.112
7.4007,105.769,22.212
7.4337,105.515,22.312
7.4669,105.994,22.412
7.5005,106.071,22.512
7.5339,106.341,22.612
7.5672,106.514,22.712
7.6006,106.775,22.812
7.634,106.963,22.912
7.6674,107.22,23.012
7.7005,107.584,23.112
7.7337,107.719,23.212
7.7672,107.395,23.312
7.8004,92.5574,23.412
7.8338,90.2967,23.512
7.8673,89.6302,23.612
7.9006,89.6982,23.712
7.934,89.9749,23.812
7.9672,90.3096,23.912
8.0004,90.8351,24.012
8.0338,91.39,24.112
8.0673,91.8061,24.212
8.1006,92.3213,24.312
8.1339,93.0835,24.412
8.1672,93.4678,24.512
8.2007,94.0064,24.612
8.2339,94.0307,24.712
8.2671,94.2035,24.812
8.3004,94.227,24.912
8.3339,94.5843,25.012
8.3672,95.0637,25.112
8.4007,95.2371,25.212
8.434,95.3226,25.312
8.4673,95.3616,25.412
8.5003,95.0514,25.512
8.5335,84.0802,25.612
8.5669,82.8259,25.712
8.6005,81.78,25.812
8.634,81.0798,25.912
8.6673,80.9701,26.012
8.7005,80.6555,26.112
8.7337,80.9037,26.212
8.7667,80.5107,26.312
8.8002,80.2403,26.412
8.8338,80.4551,26.512
8.8671,80.6238,26.612
8.9004,80.5149,26.712
8.9337,80.5247,26.812
8.9671,80.0403,26.912
9.0004,80.2178,27.012
9.0335,79.932,27.112
9.0667,79.9502,27.212
9.1002,79.8255,27.312
9.1336,79.4071,27.412
9.1669,74.9521,27.512
9.2002,73.8848,27.612
9.2335,67.4851,27.712
9.267,66.4574,27.812
9.3003,66.0362,27.912
9.3335,65.7032,28.012
9.3668,65.2298,28.112
9.4003,64.3543,28.212
9.4337,63.8294,28.312
9.4671,63.4173,28.412
9.5003,62.282,28.512
9.5337,60.0338,28.612
9.5668,58.7609,28.712
9.6001,57.4108,28.812
9.6335,56.7236,28.912
9.6669,56.0881,29.012
9.7003,55.6816,29.112
9.7336,55.5564,29.212
9.767,55.1852,29.312
9.8005,54.8695,29.412
9.8335,54.544,29.512
9.8667,54.0918,29.612
9.9003,53.723,29.712
9.9335,53.0226,29.812
9.9669,52.2772,29.912
10.0004,51.2843,30.012
10.0337,50.4292,30.112
10.0671,49.5852,30.212
10.1002,48.4254,30.312
10.1334,47.9206,30.412
10.1669,47.1147,30.512
10.2001,46.5485,30.612
10.2335,45.7643,30.712
10.267,45.3508,30.812
10.3003,44.9267,30.912
10.3337,44.6027,31.012
10.3669,44.3622,31.112
10.4001,44.0883,31.212
10.4335,44.1293,31.312
10.467,44.15,31.412
10.5002,43.5972,31.512
10.5335,43.5206,31.612
10.5669,42.988,31.712
10.6004,42.5607,31.812
10.6336,41.8563,31.912
10.6667,41.1444,32.012
10.7,40.4422,32.112
10.7335,39.4712,32.212
10.7669,38.6725,32.312
10.8004,38.294,32.412
10.8336,38.1112,32.512
10.867,38.1085,32.612
10.9001,38.1184,32.712
10.9332,37.8832,32.812
10.9667,37.606,32.912
11.0003,37.4292,33.012
11.0337,37.0706,33.112
11.0671,37.0031,33.212
11.1003,36.7329,33.312
11.1335,36.3782,33.412
11.1666,36.3611,33.512
11.2001,36.1712,33.612
11.2336,35.8509,33.712
11.2669,35.2548,33.812
11.3003,34.5071,33.912
11.3338,33.8206,34.012
11.3672,33.1984,34.112
11.4005,32.5372,34.212
11.4336,32.3458,34.312
11.4669,32.1276,34.412
11.5003,31.8594,34.512
11.5337,31.4758,34.612
11.5671,31.3158,34.712
11.6004,31.4816,34.812
11.6336,31.509,34.912
11.6672,31.3656,35.012
11.7004,31.1138,35.112
11.7336,31.074,35.212
11.767,31.1766,35.312
11.8005,31.0578,35.412
11.8339,30.5958,35.512
11.8673,30.6464,35.612
11.9006,30.787,35.712
11.9339,30.4802,35.812
11.9672,30.2939,35.912
12.0004,30.1,36.012
12.0338,29.8828,36.112
12.0671,29.6221,36.212
12.1005,29.4482,36.312
12.1339,28.9551,36.412
12.1674,28.7513,36.512
12.2007,28.5908,36.612
12.2337,27.9012,36.712
12.2671,27.5615,36.812
12.3006,26.0125,36.912
12.3337,17.8058,37.012
12.3672,16.1467,37.112
12.4007,15.3815,37.212
12.4341,15.0259,37.312
12.4674,14.2428,37.412
12.5006,13.8588,37.512
12.5338,13.5959,37.612
12.5671,13.1723,37.712
12.6004,12.6025,37.812
12.6339,12.1283,37.912
12.6673,11.932,38.012
12.7007,11.797,38.112
12.7341,11.7913,38.212
12.7673,11.6585,38.312
12.8005,11.5499,38.412
12.8338,11.4904,38.512
12.8673,11.2246,38.612