File: Selected_data/SSP_2024-10-27_C1_OPER.csv
Crossheadmm,LoadN,Timesec
0.0812,3.77213,0.279
0.1148,4.29288,0.379
0.1484,4.51841,0.479
0.1818,4.83404,0.579
0.2151,5.13069,0.679
0.2484,5.41348,0.779
0.2817,5.87644,0.879
0.3149,6.17324,0.979
0.3483,6.50536,1.079
0.3817,6.85546,1.179
0.415,7.22665,1.279
0.4484,7.65493,1.379
0.4818,8.01062,1.479
0.5152,8.34094,1.579
0.5485,8.88401,1.679
0.5817,9.35661,1.779
0.615,9.65175,1.879
0.6485,10.1074,1.979
0.682,10.447,2.079
0.7153,11.0133,2.179
0.7487,11.3485,2.279
0.7819,11.7258,2.379
0.815,12.193,2.479
0.8486,12.6564,2.579
0.8821,13.1929,2.679
0.9151,13.6535,2.779
0.9483,14.3348,2.879
0.9817,14.8855,2.979
1.0152,15.4642,3.079
1.0483,16.024,3.179
1.0817,16.7481,3.279
1.1151,17.3269,3.379
1.1484,17.9957,3.479
1.1819,18.9121,3.579
1.2154,19.6719,3.679
1.2489,20.4954,3.779
1.2822,21.3412,3.879
1.3152,22.1175,3.979
1.3485,23.0115,4.079
1.3818,23.8504,4.179
1.4152,24.749,4.279
1.4486,25.6384,4.379
1.4818,26.641,4.479
1.5151,27.7227,4.579
1.5487,28.6462,4.679
1.5819,29.5035,4.779
1.6152,30.4741,4.879
1.6485,31.5409,4.979
1.6817,32.7169,5.079
1.7152,33.6792,5.179
1.7487,34.8785,5.279
1.782,36.1369,5.379
1.8154,37.1749,5.479
1.8486,38.3979,5.579
1.8819,39.5194,5.679
1.9151,40.7113,5.779
1.9483,41.9962,5.879
1.9816,43.2668,5.979
2.0151,44.607,6.079
2.0486,45.8037,6.179
2.082,47.1402,6.279
2.115,48.3085,6.379
2.1483,49.4852,6.479
2.1817,50.8993,6.579
2.2149,52.2069,6.679
2.2485,53.459,6.779
2.2819,54.9884,6.879
2.3152,56.2168,6.979
2.3487,57.6979,7.079
2.382,58.9174,7.179
2.4152,60.4722,7.279
2.4484,61.8766,7.379
2.4813,63.5795,7.479
2.5148,64.8618,7.579
2.5484,66.068,7.679
2.5818,67.355,7.779
2.6151,68.7844,7.879
2.6484,69.9762,7.979
2.6816,71.011,8.079
2.7149,72.5769,8.179
2.7482,73.5717,8.279
2.7815,74.7072,8.379
2.8149,74.2927,8.479
2.8483,75.7629,8.579
2.8816,77.3981,8.679
2.915,79.4067,8.779
2.9484,81.2422,8.879
2.9815,83.2559,8.979
3.0148,85.0262,9.079
3.0482,87.116,9.179
3.0818,88.8617,9.279
3.1151,90.5463,9.379
3.1484,92.3906,9.479
3.1816,92.9338,9.579
3.2148,94.3344,9.679
3.2483,93.7689,9.779
3.2818,94.022,9.879
3.3147,95.7806,9.979
3.3481,97.4851,10.079
3.3814,98.9839,10.179
3.4149,96.7205,10.279
3.4481,98.59,10.379
3.4815,100.357,10.479
3.5148,102.262,10.579
3.5482,104.27,10.679
3.5816,106.222,10.779
3.6153,108.098,10.879
3.6486,110.187,10.979
3.6819,111.935,11.079
3.7149,114.059,11.179
3.7483,116.224,11.279
3.7815,117.82,11.379
3.8149,119.847,11.479
3.8483,121.845,11.579
3.8815,123.774,11.679
3.9148,125.61,11.779
3.9484,127.279,11.879
3.9816,128.18,11.979
4.0149,129.589,12.079
4.0482,128.541,12.179
4.0815,130.025,12.279
4.115,131.23,12.379
4.1484,126.647,12.479
4.1818,128.344,12.579
4.2151,129.892,12.679
4.2484,131.629,12.779
4.2817,133.767,12.879
4.315,135.92,12.979
4.3481,135.327,13.079
4.3815,136.727,13.179
4.415,138.266,13.279
4.4485,139.49,13.379
4.4819,141.356,13.479
4.515,143.507,13.579
4.5483,145.125,13.679
4.5816,147.006,13.779
4.615,148.902,13.879
4.6485,150.809,13.979
4.6819,150.596,14.079
4.7153,152.06,14.179
4.7488,153.971,14.279
4.7821,156.033,14.379
4.8153,157.669,14.479
4.8485,157.815,14.579
4.8814,156.123,14.679
4.9148,156.873,14.779
4.9485,158.623,14.879
4.9819,160.36,14.979
5.0152,162.222,15.079
5.0485,164.074,15.179
5.0818,165.61,15.279
5.1151,167.174,15.379
5.1484,164.753,15.479
5.1817,161.463,15.579
5.2151,162.67,15.679
5.2485,164.539,15.779
5.2819,165.289,15.879
5.3153,166.389,15.979
5.3486,159.854,16.079
5.3818,159.548,16.179
5.4151,157.089,16.279
5.4484,157.26,16.379
5.482,157.84,16.479
5.5153,159.568,16.579
5.5486,161.353,16.679
5.5819,163.332,16.779
5.615,165.38,16.879
5.6487,166.862,16.979
5.682,167.957,17.079
5.7149,167.887,17.179
5.7483,167.101,17.279
5.7817,167.243,17.379
5.8151,167.412,17.479
5.8483,165.083,17.579
5.8816,165.326,17.679
5.9151,166.484,17.779
5.9483,167.808,17.879
5.9817,169.682,17.979
6.0153,171.456,18.079
6.0487,173.212,18.179
6.082,175.202,18.279
6.1151,176.644,18.379
6.1483,178.185,18.479
6.1817,178.937,18.579
6.2151,180.269,18.679
6.2484,172.972,18.779
6.2815,173.216,18.879
6.315,174.313,18.979
6.3485,175.424,19.079
6.3817,166.078,19.179
6.4151,166.109,19.279
6.4483,166.93,19.379
6.4816,167.095,19.479
6.5149,167.334,19.579
6.5485,168.035,19.679
6.5818,168.823,19.779
6.6151,168.759,19.879
6.6484,165.532,19.979
6.6817,151.074,20.079
6.715,145.745,20.179
6.748,145.175,20.279
6.7813,142.683,20.379
6.8149,139.559,20.479
6.8485,138.391,20.579
6.8817,124.685,20.679
6.9149,122.732,20.779
6.9481,121.642,20.879
6.9815,121.056,20.979
7.0149,120.823,21.079
7.0482,121.028,21.179
7.0817,120.679,21.279
7.115,121.121,21.379
7.1485,121.653,21.479
7.1819,121.814,21.579
7.2151,121.655,21.679
7.2482,122.019,21.779
7.2812,122.796,21.879
7.3146,123.386,21.979
7.3483,121.655,22.079
7.3816,106.036,22.179
7.415,82.4756,22.279
7.4483,78.6798,22.379
7.4816,79.2398,22.479
7.5149,79.8171,22.579
7.5482,79.4132,22.679
7.5814,77.631,22.779
7.6148,77.8913,22.879
7.6483,78.6074,22.979
7.6816,79.3964,23.079
7.715,80.2672,23.179
7.7484,81.0818,23.279
7.7816,81.9477,23.379
7.8148,82.6153,23.479
7.8482,83.3753,23.579
7.8818,84.3561,23.679
7.9151,84.2663,23.779
7.9483,85.3606,23.879
7.9816,85.7319,23.979
8.0149,85.6591,24.079
8.0485,86.3031,24.179
8.0818,86.6686,24.279
8.1146,87.2838,24.379
8.1481,86.2715,24.479
8.1815,85.575,24.579
8.2149,85.6104,24.679
8.2482,85.9213,24.779
8.2817,86.3099,24.879
8.3149,86.1495,24.979
8.3482,86.3779,25.079
8.3817,86.8942,25.179
8.4152,87.4769,25.279
8.4486,88.2618,25.379
8.4819,88.847,25.479
8.515,89.5524,25.579
8.5483,90.003,25.679
8.5817,90.9906,25.779
8.6151,92.0974,25.879
8.6482,93.0201,25.979
8.6814,94.3985,26.079
8.715,95.5735,26.179
8.7485,96.9032,26.279
8.7818,98.3247,26.379
8.8151,99.2238,26.479
8.8484,99.6793,26.579
8.8817,100.498,26.679
8.9151,101.281,26.779
8.9485,102.08,26.879
8.9819,103.108,26.979
9.0152,103.871,27.079
9.0486,104.807,27.179
9.0818,105.792,27.279
9.1152,106.167,27.379
9.1483,106.818,27.479
9.1815,106.126,27.579
9.2151,107.003,27.679
9.2488,108.175,27.779
9.282,109.186,27.879
9.3151,110.257,27.979
9.3484,111.883,28.079
9.3818,113.149,28.179
9.4153,114.353,28.279
9.4485,115.601,28.379
9.4818,116.795,28.479
9.5154,118.217,28.579
9.5489,118.431,28.679
9.5822,118.695,28.779
9.6154,119.847,28.879
9.6486,121.161,28.979
9.6816,122.323,29.079
9.715,123.859,29.179
9.7486,124.891,29.279
9.782,125.979,29.379
9.8153,127.26,29.479
9.8486,128.606,29.579
9.8819,129.996,29.679
9.9152,131.232,29.779
9.9486,132.583,29.879
9.9817,133.788,29.979
10.0151,134.932,30.079
10.0486,136.069,30.179
10.082,137.166,30.279
10.1154,138.263,30.379
10.1486,137.861,30.479
10.1819,126.332,30.579
10.2152,126.59,30.679
10.2485,127.479,30.779
10.2819,128.476,30.879
10.3153,129.253,30.979
10.3487,129.51,31.079
10.3818,129.634,31.179
10.4152,129.903,31.279
10.4488,129.156,31.379
10.482,128.027,31.479
10.5148,126.988,31.579
10.5482,127.089,31.679
10.5817,126.775,31.779
10.6151,126.667,31.879
10.6484,124.286,31.979
10.6817,122.517,32.079
10.715,121.436,32.179
10.7483,120.477,32.279
10.7817,120.362,32.379
10.8152,120.407,32.479
10.8486,120.994,32.579
10.8818,121.655,32.679
10.9149,122.313,32.779
10.9482,122.961,32.879
10.9817,123.558,32.979
11.015,121.406,33.079
11.0481,120.496,33.179
11.0812,120.234,33.279
11.1149,120.128,33.379
11.1483,118.559,33.479
11.1816,82.6519,33.579
11.215,69.0104,33.679
11.2483,66.7835,33.779
11.2815,66.6837,33.879
11.3149,66.8294,33.979
11.3483,66.935,34.079
11.3818,67.2189,34.179
11.415,67.7014,34.279
11.4483,68.0981,34.379
11.4816,68.553,34.479
11.5149,68.999,34.579
11.548,69.6311,34.679
11.5812,70.0655,34.779
11.6148,70.8074,34.879
11.6485,71.1574,34.979
11.6816,71.4382,35.079
11.7148,71.9391,35.179
11.7482,72.3526,35.279
11.7816,72.6662,35.379
11.8151,72.9602,35.479
11.8483,73.2372,35.579
11.8815,73.5171,35.679
11.9151,71.812,35.779
11.9486,71.9502,35.879
11.9819,72.2163,35.979
12.0152,71.9172,36.079
12.0483,71.051,36.179
12.0813,65.1357,36.279
12.1148,65.2348,36.379
12.1483,65.1844,36.479
12.1818,65.3141,36.579
12.2151,65.7875,36.679
12.2484,65.8911,36.779
12.2816,65.7572,36.879
12.3151,66.0005,36.979
12.3483,61.9521,37.079
12.3815,61.5523,37.179
12.4149,61.6928,37.279
12.4484,61.6562,37.379
12.4817,61.7733,37.479
12.5152,61.8365,37.579
12.5484,61.5043,37.679
12.5818,61.2122,37.779
12.615,61.3088,37.879
12.6484,61.2179,37.979
12.6817,61.2502,38.079
12.7152,61.0282,38.179
12.7485,61.2304,38.279
12.7817,61.3905,38.379
12.8152,59.7465,38.479
12.8487,59.4943,38.579
12.8819,59.3648,38.679
12.9148,59.3915,38.779
12.9481,58.6403,38.879
12.9818,41.6189,38.979
13.0151,40.5439,39.079
13.0485,40.4292,39.179
13.0819,39.6928,39.279
13.1151,39.3823,39.379
13.1484,38.9434,39.479
13.1819,38.1799,39.579
13.2153,36.7602,39.679
13.2488,36.1019,39.779
13.282,35.5661,39.879
13.3151,35.1442,39.979
13.3485,35.0278,40.079
13.3819,34.5388,40.179
13.4153,33.8941,40.279
13.4483,33.7784,40.379
13.4815,33.4404,40.479
13.5152,33.0962,40.579
13.5487,32.853,40.679
13.5819,32.7858,40.779
13.6154,31.6907,40.879
13.6485,31.0267,40.979
13.6819,30.8108,41.079
13.7152,30.6903,41.179
13.7486,30.5776,41.279
13.782,30.4864,41.379
13.8154,30.2913,41.479
13.8487,30.3738,41.579
13.8819,30.049,41.679
13.9153,30.0284,41.779
13.9484,29.9566,41.879
13.9816,29.9304,41.979
14.0152,29.9242,42.079
14.0488,29.8144,42.179
14.082,29.8929,42.279
14.1152,29.9288,42.379
14.1486,29.8856,42.479
14.182,29.854,42.579
14.2155,29.8455,42.679
14.2486,29.9091,42.779
14.2819,29.9038,42.879
14.3155,30.0081,42.979